loggingTime(txt),loggingSample(N),locationTimestamp_since1970(s),locationLatitude(WGS84),locationLongitude(WGS84),locationAltitude(m),locationSpeed(m/s),locationCourse(°),locationVerticalAccuracy(m),locationHorizontalAccuracy(m),locationFloor(Z),accelerometerTimestamp_sinceReboot(s),accelerometerAccelerationX(G),accelerometerAccelerationY(G),accelerometerAccelerationZ(G),motionTimestamp_sinceReboot(s),motionYaw(rad),motionRoll(rad),motionPitch(rad),motionRotationRateX(rad/s),motionRotationRateY(rad/s),motionRotationRateZ(rad/s),motionUserAccelerationX(G),motionUserAccelerationY(G),motionUserAccelerationZ(G),motionAttitudeReferenceFrame(txt),motionQuaternionX(R),motionQuaternionY(R),motionQuaternionZ(R),motionQuaternionW(R),motionGravityX(G),motionGravityY(G),motionGravityZ(G),activityTimestamp_sinceReboot(s),activity(txt),activityActivityConfidence(Z),activityActivityStartDate(txt),pedometerStartDate(txt),pedometerNumberofSteps(N),pedometerAverageActivePace(s/m),pedometerCurrentPace(s/m),pedometerCurrentCadence(steps/s),pedometerDistance(m),pedometerFloorAscended(N),pedometerFloorDescended(N),pedometerEndDate(txt),altimeterTimestamp_sinceReboot(s),altimeterReset(bool),altimeterRelativeAltitude(m),altimeterPressure(kPa)
2018-07-05 14:59:00.947 -0400,1,1530817138.859889,40.738712042998,-73.97722370241516,11.48885,-1,-1,10,65,-9999,2794.279448041667,0.4490509033203125,0.847503662109375,-0.3683319091796875,2794.264525041667,0.7851455991182043,0.8517933731876187,-0.9581654713900956,-0.1395687162876129,-0.1885930746793747,0.01982647925615311,0.03155148029327393,0.02695471048355103,0.001806259155273438,XArbitraryZVertical,-0.5281117558479309,0.1781391203403473,0.1332140266895294,0.8195228576660156,0.4326819479465485,0.818138062953949,-0.3787288665771484,2792.933344625,stationary,0,2018-07-05 14:58:59.317 -0400,2018-07-05 13:09:05.896 -0400,67,4.391837,0,0,47.38,0,0,2018-07-05 14:58:50.421 -0400,552509940.3485602,0,4.1,102.4454
2018-07-05 14:59:01.182 -0400,2,1530817138.859889,40.738712042998,-73.97722370241516,11.48885,-1,-1,10,65,-9999,2794.314238041667,0.4257659912109375,0.8348236083984375,-0.37109375,2794.264525041667,0.7851455991182043,0.8517933731876187,-0.9581654713900956,-0.1395687162876129,-0.1885930746793747,0.01982647925615311,0.03155148029327393,0.02695471048355103,0.001806259155273438,XArbitraryZVertical,-0.5281117558479309,0.1781391203403473,0.1332140266895294,0.8195228576660156,0.4326819479465485,0.818138062953949,-0.3787288665771484,2792.933344625,stationary,0,2018-07-05 14:58:59.317 -0400,2018-07-05 13:09:05.896 -0400,67,4.391837,0,0,47.38,0,0,2018-07-05 14:58:50.421 -0400,552509940.3485602,0,4.1,102.4454
2018-07-05 14:59:01.205 -0400,3,1530817138.859889,40.738712042998,-73.97722370241516,11.48885,-1,-1,10,65,-9999,2794.349059041667,0.4388580322265625,0.8328704833984375,-0.368499755859375,2794.324187041667,0.7938629226987843,0.8555367285807758,-0.9609702243391678,0.07799436897039413,0.1037341132760048,0.02281840704381466,-0.002171576023101807,0.02580291032791138,0.0007069706916809082,XArbitraryZVertical,-0.5300784111022949,0.176682785153389,0.1350909769535065,0.8182601928710938,0.4323625862598419,0.8197476267814636,-0.375600129365921,2792.933344625,stationary,0,2018-07-05 14:58:59.317 -0400,2018-07-05 13:09:05.896 -0400,67,4.391837,0,0,47.38,0,0,2018-07-05 14:58:50.421 -0400,552509940.3485602,0,4.1,102.4454
2018-07-05 14:59:01.251 -0400,4,1530817138.859889,40.738712042998,-73.97722370241516,11.48885,-1,-1,10,65,-9999,2794.383849041667,0.43182373046875,0.7856292724609375,-0.382904052734375,2794.324187041667,0.7938629226987843,0.8555367285807758,-0.9609702243391678,0.07799436897039413,0.1037341132760048,0.02281840704381466,-0.002171576023101807,0.02580291032791138,0.0007069706916809082,XArbitraryZVertical,-0.5300784111022949,0.176682785153389,0.1350909769535065,0.8182601928710938,0.4323625862598419,0.8197476267814636,-0.375600129365921,2792.933344625,stationary,0,2018-07-05 14:58:59.317 -0400,2018-07-05 13:09:05.896 -0400,67,4.391837,0,0,47.38,0,0,2018-07-05 14:58:50.421 -0400,552509940.3485602,0,4.1,102.4454
2018-07-05 14:59:01.277 -0400,5,1530817138.859889,40.738712042998,-73.97722370241516,11.48885,-1,-1,10,65,-9999,2794.418669041667,0.4311370849609375,0.8177642822265625,-0.37109375,2794.383849041667,0.7807840885242601,0.8465202202067243,-0.9572401304611652,0.06958186626434326,-0.04464097321033478,-0.04751993715763092,-0.000901639461517334,-0.02953493595123291,0.0005400776863098145,XArbitraryZVertical,-0.5270609855651855,0.1773515939712524,0.1330472528934479,0.8203964233398438,0.4312452673912048,0.8176056146621704,-0.3815062642097473,2792.933344625,stationary,0,2018-07-05 14:58:59.317 -0400,2018-07-05 13:09:05.896 -0400,67,4.391837,0,0,47.38,0,0,2018-07-05 14:58:50.421 -0400,552509940.3485602,0,4.1,102.4454
2018-07-05 14:59:01.283 -0400,6,1530817138.859889,40.738712042998,-73.97722370241516,11.48885,-1,-1,10,65,-9999,2794.453490041667,0.433135986328125,0.819732666015625,-0.3749542236328125,2794.443541041667,0.7761229798806716,0.8404883959703394,-0.9559695874667488,0.1187908500432968,-0.001062870374880731,-0.01082770340144634,0.005821704864501953,0.002843976020812988,0.01229572296142578,XArbitraryZVertical,-0.525816798210144,0.1764087677001953,0.1330366730690002,0.8213992714881897,0.4297099113464355,0.8168733716011047,-0.3847932815551758,2792.933344625,stationary,0,2018-07-05 14:58:59.317 -0400,2018-07-05 13:09:05.896 -0400,67,4.391837,0,0,47.38,0,0,2018-07-05 14:58:50.421 -0400,552509940.3485602,0,4.1,102.4454
2018-07-05 14:59:01.292 -0400,7,1530817138.859889,40.738712042998,-73.97722370241516,11.48885,-1,-1,10,65,-9999,2794.488280041667,0.430419921875,0.8095245361328125,-0.388671875,2794.443541041667,0.7761229798806716,0.8404883959703394,-0.9559695874667488,0.1187908500432968,-0.001062870374880731,-0.01082770340144634,0.005821704864501953,0.002843976020812988,0.01229572296142578,XArbitraryZVertical,-0.525816798210144,0.1764087677001953,0.1330366730690002,0.8213992714881897,0.4297099113464355,0.8168733716011047,-0.3847932815551758,2792.933344625,stationary,0,2018-07-05 14:58:59.317 -0400,2018-07-05 13:09:05.896 -0400,67,4.391837,0,0,47.38,0,0,2018-07-05 14:58:50.421 -0400,552509940.3485602,0,4.1,102.4454
2018-07-05 14:59:01.332 -0400,8,1530817138.859889,40.738712042998,-73.97722370241516,11.48885,-1,-1,10,65,-9999,2794.523101041667,0.43084716796875,0.81829833984375,-0.385711669921875,2794.503203041667,0.7661904355496963,0.8324187665500035,-0.9517989618817569,0.09512969106435776,-0.01917343027889729,-0.01096518710255623,0.004274040460586548,-0.002494692802429199,-0.001979589462280273,XArbitraryZVertical,-0.5229830145835876,0.1766918450593948,0.1320945024490356,0.8232969641685486,0.4291060864925385,0.8144606351852417,-0.3905375301837921,2792.933344625,stationary,0,2018-07-05 14:58:59.317 -0400,2018-07-05 13:09:05.896 -0400,67,4.391837,0,0,47.38,0,0,2018-07-05 14:58:50.421 -0400,552509940.3485602,0,4.1,102.4454
2018-07-05 14:59:01.384 -0400,9,1530817138.859889,40.738712042998,-73.97722370241516,11.48885,-1,-1,10,65,-9999,2794.557891041667,0.427337646484375,0.8090057373046875,-0.37701416015625,2794.503203041667,0.7661904355496963,0.8324187665500035,-0.9517989618817569,0.09512969106435776,-0.01917343027889729,-0.01096518710255623,0.004274040460586548,-0.002494692802429199,-0.001979589462280273,XArbitraryZVertical,-0.5229830145835876,0.1766918450593948,0.1320945024490356,0.8232969641685486,0.4291060864925385,0.8144606351852417,-0.3905375301837921,2792.933344625,stationary,0,2018-07-05 14:58:59.317 -0400,2018-07-05 13:09:05.896 -0400,67,4.391837,0,0,47.38,0,0,2018-07-05 14:58:50.421 -0400,552509940.3485602,0,4.1,102.4454
2018-07-05 14:59:01.392 -0400,10,1530817138.859889,40.738712042998,-73.97722370241516,11.48885,-1,-1,10,65,-9999,2794.592711041667,0.420684814453125,0.7895355224609375,-0.3854522705078125,2794.562865041667,0.7607098143741806,0.8250037711564131,-0.950448429591693,-0.00790257565677166,-0.07439673691987991,-0.03304226323962212,0.0003314018249511719,-0.004670560359954834,0.0174405574798584,XArbitraryZVertical,-0.5215471386909485,0.1753887087106705,0.1321028620004654,0.8244844079017639,0.4270062446594238,0.8136762380599976,-0.3944547772407532,2792.933344625,stationary,0,2018-07-05 14:58:59.317 -0400,2018-07-05 13:09:05.896 -0400,67,4.391837,0,0,47.38,0,0,2018-07-05 14:58:50.421 -0400,552509940.3485602,0,4.1,102.4454
2018-07-05 14:59:01.398 -0400,11,1530817138.859889,40.738712042998,-73.97722370241516,11.48885,-1,-1,10,65,-9999,2794.627501041667,0.4264068603515625,0.7992706298828125,-0.3785247802734375,2794.622557041667,0.7661815236000723,0.8255117909874793,-0.9535444488465615,-0.118995726108551,-0.04865489155054092,0.0420672707259655,0.000214695930480957,-0.01667451858520508,0.004236757755279541,XArbitraryZVertical,-0.5231219530105591,0.173435389995575,0.1334705352783203,0.8236790299415588,0.425352931022644,0.8154721260070801,-0.392527163028717,2792.933344625,stationary,0,2018-07-05 14:58:59.317 -0400,2018-07-05 13:09:05.896 -0400,67,4.391837,0,0,47.38,0,0,2018-07-05 14:58:50.421 -0400,552509940.3485602,0,4.1,102.4454
2018-07-05 14:59:01.422 -0400,12,1530817138.859889,40.738712042998,-73.97722370241516,11.48885,-1,-1,10,65,-9999,2794.662322041667,0.4199066162109375,0.807525634765625,-0.36541748046875,2794.622557041667,0.7661815236000723,0.8255117909874793,-0.9535444488465615,-0.118995726108551,-0.04865489155054092,0.0420672707259655,0.000214695930480957,-0.01667451858520508,0.004236757755279541,XArbitraryZVertical,-0.5231219530105591,0.173435389995575,0.1334705352783203,0.8236790299415588,0.425352931022644,0.8154721260070801,-0.392527163028717,2792.933344625,stationary,0,2018-07-05 14:58:59.317 -0400,2018-07-05 13:09:05.896 -0400,67,4.391837,0,0,47.38,0,0,2018-07-05 14:58:50.421 -0400,552509940.3485602,0,4.1,102.4454
2018-07-05 14:59:01.436 -0400,13,1530817138.859889,40.738712042998,-73.97722370241516,11.48885,-1,-1,10,65,-9999,2794.697142041667,0.4224853515625,0.8270416259765625,-0.3789520263671875,2794.682219041667,0.7875007229729435,0.8368743883349766,-0.9602020978034161,-0.213590681552887,-0.06551642715930939,0.05208235234022141,-0.008218556642532349,-0.001054883003234863,0.01373910903930664,XArbitraryZVertical,-0.5279950499534607,0.1709069311618805,0.1376122385263443,0.8204103708267212,0.4257448017597198,0.8193074464797974,-0.3840240836143494,2792.933344625,stationary,0,2018-07-05 14:58:59.317 -0400,2018-07-05 13:09:05.896 -0400,67,4.391837,0,0,47.38,0,0,2018-07-05 14:58:50.421 -0400,552509940.3485602,0,4.1,102.4454
2018-07-05 14:59:01.445 -0400,14,1530817138.859889,40.738712042998,-73.97722370241516,11.48885,-1,-1,10,65,-9999,2794.731932041667,0.4234161376953125,0.8226470947265625,-0.37506103515625,2794.682219041667,0.7875007229729435,0.8368743883349766,-0.9602020978034161,-0.213590681552887,-0.06551642715930939,0.05208235234022141,-0.008218556642532349,-0.001054883003234863,0.01373910903930664,XArbitraryZVertical,-0.5279950499534607,0.1709069311618805,0.1376122385263443,0.8204103708267212,0.4257448017597198,0.8193074464797974,-0.3840240836143494,2792.933344625,stationary,0,2018-07-05 14:58:59.317 -0400,2018-07-05 13:09:05.896 -0400,67,4.391837,0,0,47.38,0,0,2018-07-05 14:58:50.421 -0400,552509940.3485602,0,4.1,102.4454
2018-07-05 14:59:01.453 -0400,15,1530817138.859889,40.738712042998,-73.97722370241516,11.48885,-1,-1,10,65,-9999,2794.766753041667,0.41162109375,0.8153076171875,-0.3650054931640625,2794.741881041667,0.7950097671759514,0.8422244995352061,-0.9625609782377884,-0.04984413832426071,-0.01556111965328455,-0.004628862254321575,-0.003437221050262451,-0.001916825771331787,0.007314324378967285,XArbitraryZVertical,-0.5298013091087341,0.1705408990383148,0.1386899650096893,0.8191394209861755,0.4263497889041901,0.8206576704978943,-0.3804527521133423,2792.933344625,stationary,0,2018-07-05 14:58:59.317 -0400,2018-07-05 13:09:05.896 -0400,67,4.391837,0,0,47.38,0,0,2018-07-05 14:58:50.421 -0400,552509940.3485602,0,4.1,102.4454
2018-07-05 14:59:01.459 -0400,16,1530817138.859889,40.738712042998,-73.97722370241516,11.48885,-1,-1,10,65,-9999,2794.801543041667,0.425750732421875,0.8367767333984375,-0.3701019287109375,2794.741881041667,0.7950097671759514,0.8422244995352061,-0.9625609782377884,-0.04984413832426071,-0.01556111965328455,-0.004628862254321575,-0.003437221050262451,-0.001916825771331787,0.007314324378967285,XArbitraryZVertical,-0.5298013091087341,0.1705408990383148,0.1386899650096893,0.8191394209861755,0.4263497889041901,0.8206576704978943,-0.3804527521133423,2792.933344625,stationary,0,2018-07-05 14:58:59.317 -0400,2018-07-05 13:09:05.896 -0400,67,4.391837,0,0,47.38,0,0,2018-07-05 14:58:50.421 -0400,552509940.3485602,0,4.1,102.4454
2018-07-05 14:59:01.464 -0400,17,1530817138.859889,40.738712042998,-73.97722370241516,11.48885,-1,-1,10,65,-9999,2794.836364041667,0.42279052734375,0.8299407958984375,-0.36529541015625,2794.801543041667,0.8003473960798061,0.846864803269796,-0.9650142870766466,0.02110448107123375,0.04942533746361732,0.004310104995965958,-0.0003470480442047119,0.01618450880050659,0.005584478378295898,XArbitraryZVertical,-0.5314014554023743,0.1704244762659073,0.1390318274497986,0.81806880235672,0.4266013205051422,0.8220570683479309,-0.3771359920501709,2792.933344625,stationary,0,2018-07-05 14:58:59.317 -0400,2018-07-05 13:09:05.896 -0400,67,4.391837,0,0,47.38,0,0,2018-07-05 14:58:50.421 -0400,552509940.3485602,0,4.1,102.4454
2018-07-05 14:59:01.498 -0400,18,1530817138.859889,40.738712042998,-73.97722370241516,11.48885,-1,-1,10,65,-9999,2794.871184041667,0.4199676513671875,0.810455322265625,-0.3707733154296875,2794.861235041667,0.7931685941787811,0.8440130550562983,-0.9631030002447097,0.01590845361351967,0.01212670095264912,-0.02990679070353508,-0.006806015968322754,-0.009062349796295166,0.01448029279708862,XArbitraryZVertical,-0.5299493670463562,0.1716291606426239,0.1373272240161896,0.8190461397171021,0.4266973435878754,0.8209672570228577,-0.3793942034244537,2792.933344625,stationary,0,2018-07-05 14:58:59.317 -0400,2018-07-05 13:09:05.896 -0400,67,4.391837,0,0,47.38,0,0,2018-07-05 14:58:50.421 -0400,552509940.3485602,0,4.1,102.4454
2018-07-05 14:59:01.506 -0400,19,1530817138.859889,40.738712042998,-73.97722370241516,11.48885,-1,-1,10,65,-9999,2794.905974041667,0.4244537353515625,0.825592041015625,-0.380401611328125,2794.861235041667,0.7931685941787811,0.8440130550562983,-0.9631030002447097,0.01590845361351967,0.01212670095264912,-0.02990679070353508,-0.006806015968322754,-0.009062349796295166,0.01448029279708862,XArbitraryZVertical,-0.5299493670463562,0.1716291606426239,0.1373272240161896,0.8190461397171021,0.4266973435878754,0.8209672570228577,-0.3793942034244537,2794.828276041667,unknown,2,2018-07-05 14:59:01.212 -0400,2018-07-05 13:09:05.896 -0400,67,4.391837,0,0,47.38,0,0,2018-07-05 14:58:50.421 -0400,552509940.3485602,0,4.1,102.4454
2018-07-05 14:59:01.511 -0400,20,1530817138.859889,40.738712042998,-73.97722370241516,11.48885,-1,-1,10,65,-9999,2794.940795041667,0.430755615234375,0.80462646484375,-0.3769989013671875,2794.920897041667,0.7898695787549438,0.8429997998467882,-0.9620572265304062,0.0640379935503006,0.01617949828505516,-0.004895111545920372,0.0003992319107055664,0.0052071213722229,0.001002848148345947,XArbitraryZVertical,-0.5292442440986633,0.1723421663045883,0.1365043967962265,0.8194898962974548,0.4269536733627319,0.8203697204589844,-0.3803974092006683,2794.828276041667,unknown,2,2018-07-05 14:59:01.212 -0400,2018-07-05 13:09:05.896 -0400,67,4.391837,0,0,47.38,0,0,2018-07-05 14:58:50.421 -0400,552509940.3485602,0,4.1,102.4454
2018-07-05 14:59:01.521 -0400,21,1530817138.859889,40.738712042998,-73.97722370241516,11.48885,-1,-1,10,65,-9999,2794.975585041667,0.4151458740234375,0.815826416015625,-0.37469482421875,2794.920897041667,0.7898695787549438,0.8429997998467882,-0.9620572265304062,0.0640379935503006,0.01617949828505516,-0.004895111545920372,0.0003992319107055664,0.0052071213722229,0.001002848148345947,XArbitraryZVertical,-0.5292442440986633,0.1723421663045883,0.1365043967962265,0.8194898962974548,0.4269536733627319,0.8203697204589844,-0.3803974092006683,2794.828276041667,unknown,2,2018-07-05 14:59:01.212 -0400,2018-07-05 13:09:05.896 -0400,67,4.391837,0,0,47.38,0,0,2018-07-05 14:58:50.421 -0400,552509940.3485602,0,4.1,102.4454
2018-07-05 14:59:01.527 -0400,22,1530817138.859889,40.738712042998,-73.97722370241516,11.48885,-1,-1,10,65,-9999,2795.010405041667,0.4233856201171875,0.8362884521484375,-0.3745269775390625,2794.980559041667,0.7932148723089129,0.8435018485307896,-0.9620489625732004,0.008869253098964691,-0.003060507820919156,0.04293965548276901,-0.01200395822525024,-0.004538536071777344,0.005492866039276123,XArbitraryZVertical,-0.5295634865760803,0.1716644018888474,0.1377441138029099,0.8192185759544373,0.4271498322486877,0.8203649520874023,-0.3801876902580261,2794.828276041667,unknown,2,2018-07-05 14:59:01.212 -0400,2018-07-05 13:09:05.896 -0400,67,4.391837,0,0,47.38,0,0,2018-07-05 14:58:50.421 -0400,552509940.3485602,0,4.1,102.4454
2018-07-05 14:59:01.538 -0400,23,1530817138.859889,40.738712042998,-73.97722370241516,11.48885,-1,-1,10,65,-9999,2795.045226041667,0.420013427734375,0.8050994873046875,-0.37322998046875,2795.040252041667,0.7860188355055477,0.8384050283643084,-0.9585473431309963,0.08455650508403778,-0.01052934303879738,-0.02929060161113739,-0.006380319595336914,-0.006437420845031738,0.01207053661346436,XArbitraryZVertical,-0.5274130702018738,0.172326385974884,0.1370099037885666,0.8205887079238892,0.4273397922515869,0.8183575868606567,-0.3842781484127045,2794.828276041667,unknown,2,2018-07-05 14:59:01.212 -0400,2018-07-05 13:09:05.896 -0400,67,4.391837,0,0,47.38,0,0,2018-07-05 14:58:50.421 -0400,552509940.3485602,0,4.1,102.4454
2018-07-05 14:59:01.564 -0400,24,1530817138.859889,40.738712042998,-73.97722370241516,11.48885,-1,-1,10,65,-9999,2795.080016041667,0.427398681640625,0.80511474609375,-0.3804473876953125,2795.040252041667,0.7860188355055477,0.8384050283643084,-0.9585473431309963,0.08455650508403778,-0.01052934303879738,-0.02929060161113739,-0.006380319595336914,-0.006437420845031738,0.01207053661346436,XArbitraryZVertical,-0.5274130702018738,0.172326385974884,0.1370099037885666,0.8205887079238892,0.4273397922515869,0.8183575868606567,-0.3842781484127045,2794.828276041667,unknown,2,2018-07-05 14:59:01.212 -0400,2018-07-05 13:09:05.896 -0400,67,4.391837,0,0,47.38,0,0,2018-07-05 14:58:50.421 -0400,552509940.3485602,0,4.1,102.4454
2018-07-05 14:59:01.570 -0400,25,1530817138.859889,40.738712042998,-73.97722370241516,11.48885,-1,-1,10,65,-9999,2795.114836041667,0.41558837890625,0.805084228515625,-0.369384765625,2795.099913041667,0.7765242144975855,0.8318361012365004,-0.9543675815590486,0.1434904187917709,0.03090358339250088,-0.001093382481485605,-0.002449870109558105,-0.008407413959503174,0.01475876569747925,XArbitraryZVertical,-0.5247252583503723,0.1731321662664413,0.1358685046434402,0.8223300576210022,0.4273308515548706,0.8159483075141907,-0.3893773257732391,2794.828276041667,unknown,2,2018-07-05 14:59:01.212 -0400,2018-07-05 13:09:05.896 -0400,67,4.391837,0,0,47.38,0,0,2018-07-05 14:58:50.421 -0400,552509940.3485602,0,4.1,102.4454
2018-07-05 14:59:01.576 -0400,26,1530817138.859889,40.738712042998,-73.97722370241516,11.48885,-1,-1,10,65,-9999,2795.149627041667,0.4270782470703125,0.79052734375,-0.3917083740234375,2795.099913041667,0.7765242144975855,0.8318361012365004,-0.9543675815590486,0.1434904187917709,0.03090358339250088,-0.001093382481485605,-0.002449870109558105,-0.008407413959503174,0.01475876569747925,XArbitraryZVertical,-0.5247252583503723,0.1731321662664413,0.1358685046434402,0.8223300576210022,0.4273308515548706,0.8159483075141907,-0.3893773257732391,2794.828276041667,unknown,2,2018-07-05 14:59:01.212 -0400,2018-07-05 13:09:05.896 -0400,67,4.391837,0,0,47.38,0,0,2018-07-05 14:58:50.421 -0400,552509940.3485602,0,4.1,102.4454
2018-07-05 14:59:01.581 -0400,27,1530817138.859889,40.738712042998,-73.97722370241516,11.48885,-1,-1,10,65,-9999,2795.18444125,0.428466796875,0.8090362548828125,-0.387725830078125,2795.15956925,0.7687766511178791,0.8284684521762015,-0.9502584015120135,0.07679751515388489,0.05881031602621078,0.02507290802896023,-0.002382278442382812,-0.02157360315322876,0.001368820667266846,XArbitraryZVertical,-0.5224191546440125,0.1747559010982513,0.1345687061548233,0.8236672878265381,0.4284839630126953,0.8135657906532288,-0.3930771946907043,2795.146331041667,stationary,0,2018-07-05 14:59:01.530 -0400,2018-07-05 13:09:05.896 -0400,67,4.391837,0,0,47.38,0,0,2018-07-05 14:58:50.421 -0400,552509940.3485602,0,4.1,102.4454
2018-07-05 14:59:01.607 -0400,28,1530817138.859889,40.738712042998,-73.97722370241516,11.48885,-1,-1,10,65,-9999,2795.21923125,0.4244232177734375,0.8119354248046875,-0.377044677734375,2795.15956925,0.7687766511178791,0.8284684521762015,-0.9502584015120135,0.07679751515388489,0.05881031602621078,0.02507290802896023,-0.002382278442382812,-0.02157360315322876,0.001368820667266846,XArbitraryZVertical,-0.5224191546440125,0.1747559010982513,0.1345687061548233,0.8236672878265381,0.4284839630126953,0.8135657906532288,-0.3930771946907043,2795.146331041667,stationary,0,2018-07-05 14:59:01.530 -0400,2018-07-05 13:09:05.896 -0400,67,4.391837,0,0,47.38,0,0,2018-07-05 14:58:50.421 -0400,552509940.3485602,0,4.1,102.4454
2018-07-05 14:59:01.642 -0400,29,1530817138.859889,40.738712042998,-73.97722370241516,11.48885,-1,-1,10,65,-9999,2795.25405225,0.437255859375,0.8022308349609375,-0.39007568359375,2795.21923125,0.7704605356522936,0.8323456828622348,-0.9479253316736841,-0.03922488167881966,0.01319276448339224,0.02000637724995613,-0.005504339933395386,0.001193344593048096,0.01372253894805908,XArbitraryZVertical,-0.5220286250114441,0.1764686405658722,0.1348208785057068,0.8235087394714355,0.4314076602458954,0.8122069835662842,-0.3926898539066315,2795.146331041667,stationary,0,2018-07-05 14:59:01.530 -0400,2018-07-05 13:09:05.896 -0400,67,4.391837,0,0,47.38,0,0,2018-07-05 14:58:50.421 -0400,552509940.3485602,0,4.1,102.4454
2018-07-05 14:59:01.676 -0400,30,1530817138.859889,40.738712042998,-73.97722370241516,11.48885,-1,-1,10,65,-9999,2795.28887225,0.43963623046875,0.81683349609375,-0.3885345458984375,2795.27892325,0.772680265875954,0.836038961433938,-0.9482455908840711,0.001618904061615467,0.04620344191789627,0.02451537363231182,0.00898820161819458,-0.001389086246490479,-0.001505911350250244,XArbitraryZVertical,-0.5225832462310791,0.177332803606987,0.1346915066242218,0.8229925036430359,0.4326621890068054,0.8123937249183655,-0.3909196555614471,2795.146331041667,stationary,0,2018-07-05 14:59:01.530 -0400,2018-07-05 13:09:05.896 -0400,67,4.391837,0,0,47.38,0,0,2018-07-05 14:58:50.421 -0400,552509940.3485602,0,4.1,102.4454
2018-07-05 14:59:01.712 -0400,31,1530817138.859889,40.738712042998,-73.97722370241516,11.48885,-1,-1,10,65,-9999,2795.32366225,0.43218994140625,0.8153533935546875,-0.3764495849609375,2795.27892325,0.772680265875954,0.836038961433938,-0.9482455908840711,0.001618904061615467,0.04620344191789627,0.02451537363231182,0.00898820161819458,-0.001389086246490479,-0.001505911350250244,XArbitraryZVertical,-0.5225832462310791,0.177332803606987,0.1346915066242218,0.8229925036430359,0.4326621890068054,0.8123937249183655,-0.3909196555614471,2795.146331041667,stationary,0,2018-07-05 14:59:01.530 -0400,2018-07-05 13:09:05.896 -0400,67,4.391837,0,0,47.38,0,0,2018-07-05 14:58:50.421 -0400,552509940.3485602,0,4.1,102.4454
2018-07-05 14:59:01.746 -0400,32,1530817138.859889,40.738712042998,-73.97722370241516,11.48885,-1,-1,10,65,-9999,2795.35848325,0.435272216796875,0.8109893798828125,-0.38861083984375,2795.33858525,0.7733358453807441,0.8391363855384024,-0.946962419013468,0.027584258466959,0.05368639528751373,0.001125297043472528,-0.001434028148651123,0.0007788538932800293,0.01042157411575317,XArbitraryZVertical,-0.5224117636680603,0.1787428855895996,0.1344679296016693,0.8228329420089722,0.434646338224411,0.8116448521614075,-0.3902738690376282,2795.146331041667,stationary,0,2018-07-05 14:59:01.530 -0400,2018-07-05 13:09:05.896 -0400,67,4.391837,0,0,47.38,0,0,2018-07-05 14:58:50.421 -0400,552509940.3485602,0,4.1,102.4454
2018-07-05 14:59:01.781 -0400,33,1530817138.859889,40.738712042998,-73.97722370241516,11.48885,-1,-1,10,65,-9999,2795.39327325,0.4440155029296875,0.806610107421875,-0.388031005859375,2795.33858525,0.7733358453807441,0.8391363855384024,-0.946962419013468,0.027584258466959,0.05368639528751373,0.001125297043472528,-0.001434028148651123,0.0007788538932800293,0.01042157411575317,XArbitraryZVertical,-0.5224117636680603,0.1787428855895996,0.1344679296016693,0.8228329420089722,0.434646338224411,0.8116448521614075,-0.3902738690376282,2795.146331041667,stationary,0,2018-07-05 14:59:01.530 -0400,2018-07-05 13:09:05.896 -0400,67,4.391837,0,0,47.38,0,0,2018-07-05 14:58:50.421 -0400,552509940.3485602,0,4.1,102.4454
2018-07-05 14:59:01.816 -0400,34,1530817138.859889,40.738712042998,-73.97722370241516,11.48885,-1,-1,10,65,-9999,2795.42809325,0.43719482421875,0.8119659423828125,-0.386627197265625,2795.39824725,0.7703920952992107,0.8391056967218326,-0.9465003480465359,-0.02829738147556782,-0.007062439806759357,-0.01092763803899288,0.009101808071136475,-0.004764735698699951,0.00250697135925293,XArbitraryZVertical,-0.5219879746437073,0.179609403014183,0.1333785653114319,0.8230907320976257,0.434913694858551,0.811374843120575,-0.3905380368232727,2795.146331041667,stationary,0,2018-07-05 14:59:01.530 -0400,2018-07-05 13:09:05.896 -0400,67,4.391837,0,0,47.38,0,0,2018-07-05 14:58:50.421 -0400,552509940.3485602,0,4.1,102.4454
2018-07-05 14:59:01.852 -0400,35,1530817138.859889,40.738712042998,-73.97722370241516,11.48885,-1,-1,10,65,-9999,2795.46291425,0.4361724853515625,0.8207244873046875,-0.3836822509765625,2795.45794025,0.7717578485956466,0.8414755507596845,-0.947194328795223,0.05348343402147293,0.05260594934225082,-0.01687227934598923,0.001761436462402344,0.008471131324768066,0.002534389495849609,XArbitraryZVertical,-0.5225056409835815,0.1800620406866074,0.1331506669521332,0.8227002620697021,0.4354181289672852,0.8117802739143372,-0.3891310393810272,2795.146331041667,stationary,0,2018-07-05 14:59:01.530 -0400,2018-07-05 13:09:05.896 -0400,67,4.391837,0,0,47.38,0,0,2018-07-05 14:58:50.421 -0400,552509940.3485602,0,4.1,102.4454
2018-07-05 14:59:01.885 -0400,36,1530817138.859889,40.738712042998,-73.97722370241516,11.48885,-1,-1,10,65,-9999,2795.49770425,0.44879150390625,0.8051300048828125,-0.38116455078125,2795.45794025,0.7717578485956466,0.8414755507596845,-0.947194328795223,0.05348343402147293,0.05260594934225082,-0.01687227934598923,0.001761436462402344,0.008471131324768066,0.002534389495849609,XArbitraryZVertical,-0.5225056409835815,0.1800620406866074,0.1331506669521332,0.8227002620697021,0.4354181289672852,0.8117802739143372,-0.3891310393810272,2795.46688125,unknown,2,2018-07-05 14:59:01.851 -0400,2018-07-05 13:09:05.896 -0400,67,4.391837,0,0,47.38,0,0,2018-07-05 14:58:50.421 -0400,552509940.3485602,0,4.1,102.4454
2018-07-05 14:59:01.921 -0400,37,1530817138.859889,40.738712042998,-73.97722370241516,11.48885,-1,-1,10,65,-9999,2795.53252525,0.4362030029296875,0.8080596923828125,-0.38519287109375,2795.51760125,0.7640885391302089,0.8368287376635427,-0.9471680251210907,0.03639905527234077,0.008893890306353569,-0.04259928315877914,0.009890437126159668,-0.01392865180969238,0.006017744541168213,XArbitraryZVertical,-0.5214986205101013,0.1801575869321823,0.1312135607004166,0.8236293792724609,0.4336215555667877,0.8117649555206299,-0.3911648690700531,2795.46688125,unknown,2,2018-07-05 14:59:01.851 -0400,2018-07-05 13:09:05.896 -0400,67,4.391837,0,0,47.38,0,0,2018-07-05 14:58:50.421 -0400,552509940.3485602,0,4.1,102.4454
2018-07-05 14:59:01.955 -0400,38,1530817138.859889,40.738712042998,-73.97722370241516,11.48885,-1,-1,10,65,-9999,2795.56731525,0.441986083984375,0.81146240234375,-0.3816986083984375,2795.51760125,0.7640885391302089,0.8368287376635427,-0.9471680251210907,0.03639905527234077,0.008893890306353569,-0.04259928315877914,0.009890437126159668,-0.01392865180969238,0.006017744541168213,XArbitraryZVertical,-0.5214986205101013,0.1801575869321823,0.1312135607004166,0.8236293792724609,0.4336215555667877,0.8117649555206299,-0.3911648690700531,2795.46688125,unknown,2,2018-07-05 14:59:01.851 -0400,2018-07-05 13:09:05.896 -0400,67,4.391837,0,0,47.38,0,0,2018-07-05 14:58:50.421 -0400,552509940.3485602,0,4.1,102.4454
2018-07-05 14:59:02.007 -0400,39,1530817138.859889,40.738712042998,-73.97722370241516,11.48885,-1,-1,10,65,-9999,2795.60213525,0.4415283203125,0.8061065673828125,-0.3836822509765625,2795.57726325,0.7584787297608674,0.834649039914901,-0.9462833805823448,0.05353871732950211,0.02378042787313461,-0.03286616131663322,0.01063919067382812,-0.00660628080368042,0.01087737083435059,XArbitraryZVertical,-0.5205463171005249,0.1809306889772415,0.1296870857477188,0.824303925037384,0.4333000183105469,0.8112480044364929,-0.3925912380218506,2795.46688125,unknown,2,2018-07-05 14:59:01.851 -0400,2018-07-05 13:09:05.896 -0400,67,4.391837,0,0,47.38,0,0,2018-07-05 14:58:50.421 -0400,552509940.3485602,0,4.1,102.4454
2018-07-05 14:59:02.026 -0400,40,1530817138.859889,40.738712042998,-73.97722370241516,11.48885,-1,-1,10,65,-9999,2795.63692525,0.43731689453125,0.79833984375,-0.39447021484375,2795.57726325,0.7584787297608674,0.834649039914901,-0.9462833805823448,0.05353871732950211,0.02378042787313461,-0.03286616131663322,0.01063919067382812,-0.00660628080368042,0.01087737083435059,XArbitraryZVertical,-0.5205463171005249,0.1809306889772415,0.1296870857477188,0.824303925037384,0.4333000183105469,0.8112480044364929,-0.3925912380218506,2795.46688125,unknown,2,2018-07-05 14:59:01.851 -0400,2018-07-05 13:09:05.896 -0400,67,4.391837,0,0,47.38,0,0,2018-07-05 14:58:50.421 -0400,552509940.3485602,0,4.1,102.4454
2018-07-05 14:59:02.060 -0400,41,1530817138.859889,40.738712042998,-73.97722370241516,11.48885,-1,-1,10,65,-9999,2795.67174625,0.433868408203125,0.8012542724609375,-0.3920745849609375,2795.63692525,0.7548821171175158,0.8331718119709983,-0.9470640060999576,0.009511555545032024,0.01856409385800362,-0.03320091962814331,0.008468866348266602,-0.01385259628295898,-0.002123177051544189,XArbitraryZVertical,-0.5203940868377686,0.1810734122991562,0.1283980756998062,0.8245704174041748,0.4322507679462433,0.811704158782959,-0.3928048312664032,2795.46688125,unknown,2,2018-07-05 14:59:01.851 -0400,2018-07-05 13:09:05.896 -0400,67,4.391837,0,0,47.38,0,0,2018-07-05 14:58:50.421 -0400,552509940.3485602,0,4.1,102.4454
2018-07-05 14:59:02.095 -0400,42,1530817138.859889,40.738712042998,-73.97722370241516,11.48885,-1,-1,10,65,-9999,2795.70656625,0.4376678466796875,0.8114776611328125,-0.385650634765625,2795.69661825,0.7557378888370077,0.8344348140816846,-0.9486988562960886,-0.0207908358424902,0.006801444105803967,-0.005548584274947643,0.002487331628799438,-0.0007072687149047852,0.006646811962127686,XArbitraryZVertical,-0.5211150646209717,0.1809854954481125,0.1280223578214645,0.8241925835609436,0.4317625761032104,0.8126579523086548,-0.3913666903972626,2795.46688125,unknown,2,2018-07-05 14:59:01.851 -0400,2018-07-05 13:09:05.896 -0400,67,4.391837,0,0,47.38,0,0,2018-07-05 14:58:50.421 -0400,552509940.3485602,0,4.1,102.4454
2018-07-05 14:59:02.130 -0400,43,1530817138.859889,40.738712042998,-73.97722370241516,11.48885,-1,-1,10,65,-9999,2795.74135625,0.451171875,0.7832794189453125,-0.4114227294921875,2795.69661825,0.7557378888370077,0.8344348140816846,-0.9486988562960886,-0.0207908358424902,0.006801444105803967,-0.005548584274947643,0.002487331628799438,-0.0007072687149047852,0.006646811962127686,XArbitraryZVertical,-0.5211150646209717,0.1809854954481125,0.1280223578214645,0.8241925835609436,0.4317625761032104,0.8126579523086548,-0.3913666903972626,2795.46688125,unknown,2,2018-07-05 14:59:01.851 -0400,2018-07-05 13:09:05.896 -0400,67,4.391837,0,0,47.38,0,0,2018-07-05 14:58:50.421 -0400,552509940.3485602,0,4.1,102.4454
2018-07-05 14:59:02.165 -0400,44,1530817138.859889,40.738712042998,-73.97722370241516,11.48885,-1,-1,10,65,-9999,2795.77617725,0.3911285400390625,0.822601318359375,-0.3603515625,2795.75627925,0.7464694418603826,0.8257919307510048,-0.9444261943210924,0.1765075027942657,-0.04409369453787804,0.0100890975445509,-0.006153225898742676,-0.02350908517837524,-0.001629233360290527,XArbitraryZVertical,-0.5182499885559082,0.1808314174413681,0.1274842619895935,0.8261138796806335,0.4309121370315552,0.8101606965065002,-0.3974339067935944,2795.46688125,unknown,2,2018-07-05 14:59:01.851 -0400,2018-07-05 13:09:05.896 -0400,67,4.391837,0,0,47.38,0,0,2018-07-05 14:58:50.421 -0400,552509940.3485602,0,4.1,102.4454
2018-07-05 14:59:02.199 -0400,45,1530817138.859889,40.738712042998,-73.97722370241516,11.48885,-1,-1,10,65,-9999,2795.81096725,0.407989501953125,0.80950927734375,-0.384063720703125,2795.75627925,0.7464694418603826,0.8257919307510048,-0.9444261943210924,0.1765075027942657,-0.04409369453787804,0.0100890975445509,-0.006153225898742676,-0.02350908517837524,-0.001629233360290527,XArbitraryZVertical,-0.5182499885559082,0.1808314174413681,0.1274842619895935,0.8261138796806335,0.4309121370315552,0.8101606965065002,-0.3974339067935944,2795.46688125,unknown,2,2018-07-05 14:59:01.851 -0400,2018-07-05 13:09:05.896 -0400,67,4.391837,0,0,47.38,0,0,2018-07-05 14:58:50.421 -0400,552509940.3485602,0,4.1,102.4454
2018-07-05 14:59:02.234 -0400,46,1530817138.859889,40.738712042998,-73.97722370241516,11.48885,-1,-1,10,65,-9999,2795.84578825,0.446502685546875,0.842681884765625,-0.395172119140625,2795.81594125,0.7453134021412952,0.8189310761137651,-0.9341806643633564,-0.2772770822048187,-0.1007316708564758,0.08596016466617584,-0.02622607350349426,0.005397021770477295,0.0219653844833374,XArbitraryZVertical,-0.5141398310661316,0.1806810945272446,0.1312516182661057,0.828122615814209,0.4342155754566193,0.8041122555732727,-0.4060291647911072,2795.46688125,unknown,2,2018-07-05 14:59:01.851 -0400,2018-07-05 13:09:05.896 -0400,67,4.391837,0,0,47.38,0,0,2018-07-05 14:58:50.421 -0400,552509940.3485602,0,4.1,102.4454
2018-07-05 14:59:02.269 -0400,47,1530817138.859889,40.738712042998,-73.97722370241516,11.48885,-1,-1,10,65,-9999,2795.88060825,0.42401123046875,0.825592041015625,-0.3842926025390625,2795.87563425,0.767552412194542,0.8345709117470724,-0.9385006505442794,-0.06426631659269333,-0.04991376399993896,0.04569895565509796,-0.004630535840988159,0.02284067869186401,0.007814347743988037,XArbitraryZVertical,-0.5186856389045715,0.1803856194019318,0.1353534013032913,0.8246849775314331,0.4379343390464783,0.8066728711128235,-0.3968524634838104,2795.46688125,unknown,2,2018-07-05 14:59:01.851 -0400,2018-07-05 13:09:05.896 -0400,67,4.391837,0,0,47.38,0,0,2018-07-05 14:58:50.421 -0400,552509940.3485602,0,4.1,102.4454
2018-07-05 14:59:02.304 -0400,48,1530817138.859889,40.738712042998,-73.97722370241516,11.48885,-1,-1,10,65,-9999,2795.91539825,0.4383087158203125,0.8100433349609375,-0.3973388671875,2795.87563425,0.767552412194542,0.8345709117470724,-0.9385006505442794,-0.06426631659269333,-0.04991376399993896,0.04569895565509796,-0.004630535840988159,0.02284067869186401,0.007814347743988037,XArbitraryZVertical,-0.5186856389045715,0.1803856194019318,0.1353534013032913,0.8246849775314331,0.4379343390464783,0.8066728711128235,-0.3968524634838104,2795.46688125,unknown,2,2018-07-05 14:59:01.851 -0400,2018-07-05 13:09:05.896 -0400,67,4.391837,0,0,47.38,0,0,2018-07-05 14:58:50.421 -0400,552509940.3485602,0,4.1,102.4454
2018-07-05 14:59:02.338 -0400,49,1530817138.859889,40.738712042998,-73.97722370241516,11.48885,-1,-1,10,65,-9999,2795.95021925,0.4319915771484375,0.7866363525390625,-0.3955535888671875,2795.93529625,0.7643830811160323,0.8295082394482427,-0.9371792058981726,0.08555422723293304,-0.04582315310835838,-0.0302586555480957,-0.00224226713180542,-0.009977519512176514,0.0003853440284729004,XArbitraryZVertical,-0.5176023840904236,0.1794315576553345,0.1356805711984634,0.8255197405815125,0.4367057681083679,0.805891215801239,-0.3997841775417328,2795.46688125,unknown,2,2018-07-05 14:59:01.851 -0400,2018-07-05 13:09:05.896 -0400,67,4.391837,0,0,47.38,0,0,2018-07-05 14:58:50.421 -0400,552509940.3485602,0,4.1,102.4454
2018-07-05 14:59:02.373 -0400,50,1530817138.859889,40.738712042998,-73.97722370241516,11.48885,-1,-1,10,65,-9999,2795.98500925,0.4446563720703125,0.784210205078125,-0.397369384765625,2795.93529625,0.7643830811160323,0.8295082394482427,-0.9371792058981726,0.08555422723293304,-0.04582315310835838,-0.0302586555480957,-0.00224226713180542,-0.009977519512176514,0.0003853440284729004,XArbitraryZVertical,-0.5176023840904236,0.1794315576553345,0.1356805711984634,0.8255197405815125,0.4367057681083679,0.805891215801239,-0.3997841775417328,2795.46688125,unknown,2,2018-07-05 14:59:01.851 -0400,2018-07-05 13:09:05.896 -0400,67,4.391837,0,0,47.38,0,0,2018-07-05 14:58:50.421 -0400,552509940.3485602,0,4.1,102.4454
2018-07-05 14:59:02.408 -0400,51,1530817138.859889,40.738712042998,-73.97722370241516,11.48885,-1,-1,10,65,-9999,2796.01982925,0.437744140625,0.78955078125,-0.3896331787109375,2795.99495725,0.7609918893202307,0.8245153615903276,-0.9357266183461611,-0.01906593516469002,-0.04358529672026634,0.03318802639842033,0.007139921188354492,-0.02130842208862305,0.006818890571594238,XArbitraryZVertical,-0.5164579749107361,0.1785894334316254,0.1359242647886276,0.8263785839080811,0.4355632960796356,0.805030345916748,-0.4027539491653442,2795.46688125,unknown,2,2018-07-05 14:59:01.851 -0400,2018-07-05 13:09:05.896 -0400,67,4.391837,0,0,47.38,0,0,2018-07-05 14:58:50.421 -0400,552509940.3485602,0,4.1,102.4454
2018-07-05 14:59:02.443 -0400,52,1530817138.859889,40.738712042998,-73.97722370241516,11.48885,-1,-1,10,65,-9999,2796.05465025,0.436279296875,0.8007659912109375,-0.3900909423828125,2795.99495725,0.7609918893202307,0.8245153615903276,-0.9357266183461611,-0.01906593516469002,-0.04358529672026634,0.03318802639842033,0.007139921188354492,-0.02130842208862305,0.006818890571594238,XArbitraryZVertical,-0.5164579749107361,0.1785894334316254,0.1359242647886276,0.8263785839080811,0.4355632960796356,0.805030345916748,-0.4027539491653442,2795.46688125,unknown,2,2018-07-05 14:59:01.851 -0400,2018-07-05 13:09:05.896 -0400,67,4.391837,0,0,47.38,0,0,2018-07-05 14:58:50.421 -0400,552509940.3485602,0,4.1,102.4454
2018-07-05 14:59:02.500 -0400,53,1530817138.859889,40.738712042998,-73.97722370241516,11.48885,-1,-1,10,65,-9999,2796.08944025,0.435760498046875,0.7973480224609375,-0.3876800537109375,2796.05465025,0.7696623174555637,0.8292590101433185,-0.935607261240696,-0.06332367658615112,-0.03288125246763229,0.06815586239099503,-0.001260340213775635,-0.004193544387817383,0.01114535331726074,XArbitraryZVertical,-0.5175157189369202,0.1783352345228195,0.1383074373006821,0.8253756165504456,0.437539666891098,0.8049595355987549,-0.4007480442523956,2795.46688125,unknown,2,2018-07-05 14:59:01.851 -0400,2018-07-05 13:09:05.896 -0400,67,4.391837,0,0,47.38,0,0,2018-07-05 14:58:50.421 -0400,552509940.3485602,0,4.1,102.4454
2018-07-05 14:59:02.513 -0400,54,1530817138.859889,40.738712042998,-73.97722370241516,11.48885,-1,-1,10,65,-9999,2796.12426025,0.4318695068359375,0.7783355712890625,-0.3858489990234375,2796.11431225,0.7740804804770121,0.8317979313021717,-0.9334016110971003,0.02593349851667881,-0.01065051648765802,0.05593941360712051,-0.006517529487609863,-0.01702779531478882,0.01307463645935059,XArbitraryZVertical,-0.5173274874687195,0.178764671087265,0.1400127857923508,0.8251132965087891,0.4398671388626099,0.8036488890647888,-0.4008309245109558,2795.46688125,unknown,2,2018-07-05 14:59:01.851 -0400,2018-07-05 13:09:05.896 -0400,67,4.391837,0,0,47.38,0,0,2018-07-05 14:58:50.421 -0400,552509940.3485602,0,4.1,102.4454
2018-07-05 14:59:02.547 -0400,55,1530817138.859889,40.738712042998,-73.97722370241516,11.48885,-1,-1,10,65,-9999,2796.159053541667,0.439178466796875,0.7602996826171875,-0.384368896484375,2796.11431225,0.7740804804770121,0.8317979313021717,-0.9334016110971003,0.02593349851667881,-0.01065051648765802,0.05593941360712051,-0.006517529487609863,-0.01702779531478882,0.01307463645935059,XArbitraryZVertical,-0.5173274874687195,0.178764671087265,0.1400127857923508,0.8251132965087891,0.4398671388626099,0.8036488890647888,-0.4008309245109558,2795.46688125,unknown,2,2018-07-05 14:59:01.851 -0400,2018-07-05 13:09:05.896 -0400,67,4.391837,0,0,47.38,0,0,2018-07-05 14:58:50.421 -0400,552509940.3485602,0,4.1,102.4454
2018-07-05 14:59:02.582 -0400,56,1530817138.859889,40.738712042998,-73.97722370241516,11.48885,-1,-1,10,65,-9999,2796.193874541667,0.4434051513671875,0.7651519775390625,-0.3740692138671875,2796.173977541667,0.7795575241965936,0.8368672124546772,-0.9289850533338173,-0.02078432589769363,0.02770699188113213,0.1400980204343796,-0.005895376205444336,-0.04413104057312012,0.02145266532897949,XArbitraryZVertical,-0.5166594386100769,0.1804948002099991,0.1420447379350662,0.8248077630996704,0.4445245265960693,0.8010127544403076,-0.4009692966938019,2795.46688125,unknown,2,2018-07-05 14:59:01.851 -0400,2018-07-05 13:09:05.896 -0400,67,4.391837,0,0,47.38,0,0,2018-07-05 14:58:50.421 -0400,552509940.3485602,0,4.1,102.4454
2018-07-05 14:59:02.617 -0400,57,1530817138.859889,40.738712042998,-73.97722370241516,11.48885,-1,-1,10,65,-9999,2796.228695541667,0.450531005859375,0.7885284423828125,-0.3646392822265625,2796.173977541667,0.7795575241965936,0.8368672124546772,-0.9289850533338173,-0.02078432589769363,0.02770699188113213,0.1400980204343796,-0.005895376205444336,-0.04413104057312012,0.02145266532897949,XArbitraryZVertical,-0.5166594386100769,0.1804948002099991,0.1420447379350662,0.8248077630996704,0.4445245265960693,0.8010127544403076,-0.4009692966938019,2795.46688125,unknown,2,2018-07-05 14:59:01.851 -0400,2018-07-05 13:09:05.896 -0400,67,4.391837,0,0,47.38,0,0,2018-07-05 14:58:50.421 -0400,552509940.3485602,0,4.1,102.4454
2018-07-05 14:59:02.652 -0400,58,1530817138.859889,40.738712042998,-73.97722370241516,11.48885,-1,-1,10,65,-9999,2796.263485541667,0.4631805419921875,0.786102294921875,-0.364501953125,2796.233638541667,0.7948633945651538,0.8528370231549391,-0.9209831082053622,-0.005331387277692556,0.07545800507068634,0.2397266179323196,-0.00515294075012207,-0.007668375968933105,0.03338414430618286,XArbitraryZVertical,-0.5164735317230225,0.1850496381521225,0.1462062895298004,0.8231860995292664,0.4556839466094971,0.7961968183517456,-0.3980234563350677,2795.46688125,unknown,2,2018-07-05 14:59:01.851 -0400,2018-07-05 13:09:05.896 -0400,67,4.391837,0,0,47.38,0,0,2018-07-05 14:58:50.421 -0400,552509940.3485602,0,4.1,102.4454
2018-07-05 14:59:02.687 -0400,59,1530817138.859889,40.738712042998,-73.97722370241516,11.48885,-1,-1,10,65,-9999,2796.298305541667,0.46478271484375,0.7783203125,-0.3752288818359375,2796.293331541667,0.8044093506869718,0.8668120387884135,-0.9068712859508431,0.1322266757488251,0.1434671431779861,0.2438220977783203,-0.006478548049926758,-0.008297979831695557,0.02993810176849365,XArbitraryZVertical,-0.5136111974716187,0.1917775571346283,0.150067999958992,0.8227419853210449,0.4697200953960419,0.7875796556472778,-0.3988498151302338,2795.46688125,unknown,2,2018-07-05 14:59:01.851 -0400,2018-07-05 13:09:05.896 -0400,67,4.391837,0,0,47.38,0,0,2018-07-05 14:58:50.421 -0400,552509940.3485602,0,4.1,102.4454
2018-07-05 14:59:02.721 -0400,60,1530817138.859889,40.738712042998,-73.97722370241516,11.48885,-1,-1,10,65,-9999,2796.333095541667,0.478179931640625,0.759368896484375,-0.394134521484375,2796.293331541667,0.8044093506869718,0.8668120387884135,-0.9068712859508431,0.1322266757488251,0.1434671431779861,0.2438220977783203,-0.006478548049926758,-0.008297979831695557,0.02993810176849365,XArbitraryZVertical,-0.5136111974716187,0.1917775571346283,0.150067999958992,0.8227419853210449,0.4697200953960419,0.7875796556472778,-0.3988498151302338,2795.46688125,unknown,2,2018-07-05 14:59:01.851 -0400,2018-07-05 13:09:05.896 -0400,67,4.391837,0,0,47.38,0,0,2018-07-05 14:58:50.421 -0400,552509940.3485602,0,4.1,102.4454
2018-07-05 14:59:02.757 -0400,61,1530817138.859889,40.738712042998,-73.97722370241516,11.48885,-1,-1,10,65,-9999,2796.367916541667,0.4923858642578125,0.7530517578125,-0.40081787109375,2796.352993541667,0.810902502523637,0.8820185541700377,-0.8903734919231755,0.09986259788274765,0.1787417829036713,0.2755990028381348,-0.0006349086761474609,-0.02132534980773926,0.0004366040229797363,XArbitraryZVertical,-0.5098063349723816,0.200410932302475,0.1530164927244186,0.8225075602531433,0.48569655418396,0.7773067951202393,-0.3998659253120422,2795.46688125,unknown,2,2018-07-05 14:59:01.851 -0400,2018-07-05 13:09:05.896 -0400,67,4.391837,0,0,47.38,0,0,2018-07-05 14:58:50.421 -0400,552509940.3485602,0,4.1,102.4454
2018-07-05 14:59:02.791 -0400,62,1530817138.859889,40.738712042998,-73.97722370241516,11.48885,-1,-1,10,65,-9999,2796.402706541667,0.507965087890625,0.752105712890625,-0.4035491943359375,2796.352993541667,0.810902502523637,0.8820185541700377,-0.8903734919231755,0.09986259788274765,0.1787417829036713,0.2755990028381348,-0.0006349086761474609,-0.02132534980773926,0.0004366040229797363,XArbitraryZVertical,-0.5098063349723816,0.200410932302475,0.1530164927244186,0.8225075602531433,0.48569655418396,0.7773067951202393,-0.3998659253120422,2795.46688125,unknown,2,2018-07-05 14:59:01.851 -0400,2018-07-05 13:09:05.896 -0400,67,4.391837,0,0,47.38,0,0,2018-07-05 14:58:50.421 -0400,552509940.3485602,0,4.1,102.4454
2018-07-05 14:59:02.826 -0400,63,1530817138.859889,40.738712042998,-73.97722370241516,11.48885,-1,-1,10,65,-9999,2796.437526541667,0.51953125,0.7476959228515625,-0.3946533203125,2796.412655541667,0.8204543724099337,0.89930755393506,-0.8718674555881258,0.1691899299621582,0.1559118330478668,0.3276447653770447,0.007135510444641113,-0.01344138383865356,-0.0007860660552978516,XArbitraryZVertical,-0.5058673024177551,0.2096489518880844,0.1572750806808472,0.8218330144882202,0.5037134885787964,0.7655317783355713,-0.4002911746501923,2795.46688125,unknown,2,2018-07-05 14:59:01.851 -0400,2018-07-05 13:09:05.896 -0400,67,4.391837,0,0,47.38,0,0,2018-07-05 14:58:50.421 -0400,552509940.3485602,0,4.1,102.4454
2018-07-05 14:59:02.860 -0400,64,1530817138.859889,40.738712042998,-73.97722370241516,11.48885,-1,-1,10,65,-9999,2796.472347541667,0.5146331787109375,0.732574462890625,-0.3908843994140625,2796.412655541667,0.8204543724099337,0.89930755393506,-0.8718674555881258,0.1691899299621582,0.1559118330478668,0.3276447653770447,0.007135510444641113,-0.01344138383865356,-0.0007860660552978516,XArbitraryZVertical,-0.5058673024177551,0.2096489518880844,0.1572750806808472,0.8218330144882202,0.5037134885787964,0.7655317783355713,-0.4002911746501923,2795.46688125,unknown,2,2018-07-05 14:59:01.851 -0400,2018-07-05 13:09:05.896 -0400,67,4.391837,0,0,47.38,0,0,2018-07-05 14:58:50.421 -0400,552509940.3485602,0,4.1,102.4454
2018-07-05 14:59:02.896 -0400,65,1530817138.859889,40.738712042998,-73.97722370241516,11.48885,-1,-1,10,65,-9999,2796.507137541667,0.532196044921875,0.7077484130859375,-0.3932037353515625,2796.472347541667,0.8182201767542849,0.9070885801359871,-0.8458440139520202,0.3657093346118927,0.1553565561771393,0.3206355273723602,-0.005745768547058105,-0.01058554649353027,0.01619315147399902,XArbitraryZVertical,-0.4974249601364136,0.2198183089494705,0.1610813587903976,0.8235898613929749,0.5223320126533508,0.7485310435295105,-0.4084966480731964,2795.46688125,unknown,2,2018-07-05 14:59:01.851 -0400,2018-07-05 13:09:05.896 -0400,67,4.391837,0,0,47.38,0,0,2018-07-05 14:58:50.421 -0400,552509940.3485602,0,4.1,102.4454
2018-07-05 14:59:02.930 -0400,66,1530817138.859889,40.738712042998,-73.97722370241516,11.48885,-1,-1,10,65,-9999,2796.541957541667,0.54931640625,0.7004547119140625,-0.40130615234375,2796.532009541667,0.8122398579212733,0.9150426938054428,-0.8170990119419705,0.2719615995883942,0.2355928122997284,0.3914321660995483,3.55839729309082e-05,-0.03212690353393555,0.02221482992172241,XArbitraryZVertical,-0.4875688254833221,0.2315956950187683,0.1640337556600571,0.8256707787513733,0.5423991084098816,0.729163646697998,-0.4172801375389099,2795.46688125,unknown,2,2018-07-05 14:59:01.851 -0400,2018-07-05 13:09:05.896 -0400,67,4.391837,0,0,47.38,0,0,2018-07-05 14:58:50.421 -0400,552509940.3485602,0,4.1,102.4454
2018-07-05 14:59:02.965 -0400,67,1530817138.859889,40.738712042998,-73.97722370241516,11.48885,-1,-1,10,65,-9999,2796.576748541667,0.5587158203125,0.7058563232421875,-0.4138336181640625,2796.532009541667,0.8122398579212733,0.9150426938054428,-0.8170990119419705,0.2719615995883942,0.2355928122997284,0.3914321660995483,3.55839729309082e-05,-0.03212690353393555,0.02221482992172241,XArbitraryZVertical,-0.4875688254833221,0.2315956950187683,0.1640337556600571,0.8256707787513733,0.5423991084098816,0.729163646697998,-0.4172801375389099,2795.46688125,unknown,2,2018-07-05 14:59:01.851 -0400,2018-07-05 13:09:05.896 -0400,67,4.391837,0,0,47.38,0,0,2018-07-05 14:58:50.421 -0400,552509942.9099101,0,4.1,102.4447
2018-07-05 14:59:03.004 -0400,68,1530817138.859889,40.738712042998,-73.97722370241516,11.48885,-1,-1,10,65,-9999,2796.611568541667,0.574493408203125,0.6893310546875,-0.4283294677734375,2796.591671541667,0.8237911730365934,0.9353589046245541,-0.7876039314963125,0.2161857038736343,0.1979410499334335,0.5121771097183228,-0.002233564853668213,-0.002304911613464355,-0.0003513693809509277,XArbitraryZVertical,-0.4805219769477844,0.2443721145391464,0.1714915186166763,0.8246035575866699,0.5678310990333557,0.7086647748947144,-0.4187617897987366,2795.46688125,unknown,2,2018-07-05 14:59:01.851 -0400,2018-07-05 13:09:05.896 -0400,67,4.391837,0,0,47.38,0,0,2018-07-05 14:58:50.421 -0400,552509942.9099101,0,4.1,102.4447
2018-07-05 14:59:03.034 -0400,69,1530817138.859889,40.738712042998,-73.97722370241516,11.48885,-1,-1,10,65,-9999,2796.646389541667,0.5861968994140625,0.6727752685546875,-0.4297027587890625,2796.591671541667,0.8237911730365934,0.9353589046245541,-0.7876039314963125,0.2161857038736343,0.1979410499334335,0.5121771097183228,-0.002233564853668213,-0.002304911613464355,-0.0003513693809509277,XArbitraryZVertical,-0.4805219769477844,0.2443721145391464,0.1714915186166763,0.8246035575866699,0.5678310990333557,0.7086647748947144,-0.4187617897987366,2795.46688125,unknown,2,2018-07-05 14:59:01.851 -0400,2018-07-05 13:09:05.896 -0400,67,4.391837,0,0,47.38,0,0,2018-07-05 14:58:50.421 -0400,552509942.9099101,0,4.1,102.4447
2018-07-05 14:59:03.070 -0400,70,1530817138.859889,40.738712042998,-73.97722370241516,11.48885,-1,-1,10,65,-9999,2796.681179541667,0.59442138671875,0.6664276123046875,-0.4262237548828125,2796.651363541667,0.8266512091201242,0.9486434827652804,-0.7527308494660926,0.3773411214351654,0.179358571767807,0.4910125732421875,-0.006877303123474121,-0.01085907220840454,-0.004371225833892822,XArbitraryZVertical,-0.4700437784194946,0.2576685547828674,0.1785721182823181,0.8250924944877625,0.5930742025375366,0.683634340763092,-0.4253315329551697,2795.46688125,unknown,2,2018-07-05 14:59:01.851 -0400,2018-07-05 13:09:05.896 -0400,67,4.391837,0,0,47.38,0,0,2018-07-05 14:58:50.421 -0400,552509942.9099101,0,4.1,102.4447
2018-07-05 14:59:03.104 -0400,71,1530817138.859889,40.738712042998,-73.97722370241516,11.48885,-1,-1,10,65,-9999,2796.715999541667,0.619781494140625,0.64306640625,-0.430389404296875,2796.711025541667,0.8225275053932321,0.9555177687188917,-0.7134428146613329,0.4458022713661194,0.164098933339119,0.5183888077735901,-0.00743567943572998,-0.008459985256195068,0.009324431419372559,XArbitraryZVertical,-0.4564832746982574,0.2709502875804901,0.1854838877916336,0.826924741268158,0.617451548576355,0.6544408202171326,-0.4364179372787476,2795.46688125,unknown,2,2018-07-05 14:59:01.851 -0400,2018-07-05 13:09:05.896 -0400,67,4.391837,0,0,47.38,0,0,2018-07-05 14:58:50.421 -0400,552509942.9099101,0,4.1,102.4447
2018-07-05 14:59:03.139 -0400,72,1530817138.859889,40.738712042998,-73.97722370241516,11.48885,-1,-1,10,65,-9999,2796.750789541667,0.6543731689453125,0.637237548828125,-0.43585205078125,2796.711025541667,0.8225275053932321,0.9555177687188917,-0.7134428146613329,0.4458022713661194,0.164098933339119,0.5183888077735901,-0.00743567943572998,-0.008459985256195068,0.009324431419372559,XArbitraryZVertical,-0.4564832746982574,0.2709502875804901,0.1854838877916336,0.826924741268158,0.617451548576355,0.6544408202171326,-0.4364179372787476,2795.46688125,unknown,2,2018-07-05 14:59:01.851 -0400,2018-07-05 13:09:05.896 -0400,67,4.391837,0,0,47.38,0,0,2018-07-05 14:58:50.421 -0400,552509942.9099101,0,4.1,102.4447
2018-07-05 14:59:03.174 -0400,73,1530817138.859889,40.738712042998,-73.97722370241516,11.48885,-1,-1,10,65,-9999,2796.785610541667,0.665924072265625,0.5900421142578125,-0.4592742919921875,2796.770687541667,0.8183019924185254,0.9653162277506716,-0.6748686931323296,0.360118955373764,0.2370695322751999,0.5153449177742004,0.01975619792938232,-0.00167161226272583,0.003702104091644287,XArbitraryZVertical,-0.4432771503925323,0.2851486802101135,0.1915353685617447,0.8279548287391663,0.6419869661331177,0.6247947812080383,-0.4443911910057068,2795.46688125,unknown,2,2018-07-05 14:59:01.851 -0400,2018-07-05 13:09:05.896 -0400,67,4.391837,0,0,47.38,0,0,2018-07-05 14:58:50.421 -0400,552509942.9099101,0,4.1,102.4447
2018-07-05 14:59:03.208 -0400,74,1530817138.859889,40.738712042998,-73.97722370241516,11.48885,-1,-1,10,65,-9999,2796.820430541667,0.6489105224609375,0.59246826171875,-0.458984375,2796.770687541667,0.8183019924185254,0.9653162277506716,-0.6748686931323296,0.360118955373764,0.2370695322751999,0.5153449177742004,0.01975619792938232,-0.00167161226272583,0.003702104091644287,XArbitraryZVertical,-0.4432771503925323,0.2851486802101135,0.1915353685617447,0.8279548287391663,0.6419869661331177,0.6247947812080383,-0.4443911910057068,2795.46688125,unknown,2,2018-07-05 14:59:01.851 -0400,2018-07-05 13:09:05.896 -0400,67,4.391837,0,0,47.38,0,0,2018-07-05 14:58:50.421 -0400,552509942.9099101,0,4.1,102.4447
2018-07-05 14:59:03.243 -0400,75,1530817138.859889,40.738712042998,-73.97722370241516,11.48885,-1,-1,10,65,-9999,2796.855220541667,0.6877288818359375,0.6217193603515625,-0.456939697265625,2796.830349541667,0.828431893505065,0.9811842133170956,-0.6377165483279303,0.195898249745369,0.1164211481809616,0.6108404397964478,-0.01888811588287354,-0.002894043922424316,-0.01223111152648926,XArbitraryZVertical,-0.4331908226013184,0.2982768416404724,0.2019016593694687,0.826203465461731,0.667798638343811,0.5953623652458191,-0.4467532634735107,2795.46688125,unknown,2,2018-07-05 14:59:01.851 -0400,2018-07-05 13:09:05.896 -0400,67,4.391837,0,0,47.38,0,0,2018-07-05 14:58:50.421 -0400,552509942.9099101,0,4.1,102.4447
2018-07-05 14:59:03.278 -0400,76,1530817138.859889,40.738712042998,-73.97722370241516,11.48885,-1,-1,10,65,-9999,2796.890041541667,0.7041015625,0.58758544921875,-0.4427490234375,2796.830349541667,0.828431893505065,0.9811842133170956,-0.6377165483279303,0.195898249745369,0.1164211481809616,0.6108404397964478,-0.01888811588287354,-0.002894043922424316,-0.01223111152648926,XArbitraryZVertical,-0.4331908226013184,0.2982768416404724,0.2019016593694687,0.826203465461731,0.667798638343811,0.5953623652458191,-0.4467532634735107,2795.46688125,unknown,2,2018-07-05 14:59:01.851 -0400,2018-07-05 13:09:05.896 -0400,67,4.391837,0,0,47.38,0,0,2018-07-05 14:58:50.421 -0400,552509942.9099101,0,4.1,102.4447
2018-07-05 14:59:03.313 -0400,77,1530817138.859889,40.738712042998,-73.97722370241516,11.48885,-1,-1,10,65,-9999,2796.924831541667,0.71112060546875,0.53643798828125,-0.453094482421875,2796.890041541667,0.8302814688919137,0.989390057409152,-0.600594085716073,0.4449213743209839,0.1310632079839706,0.4831158220767975,0.01224547624588013,0.03560584783554077,0.007929801940917969,XArbitraryZVertical,-0.4211395084857941,0.3099946081638336,0.2105729430913925,0.8259562849998474,0.6894451379776001,0.5651326775550842,-0.453089714050293,2795.46688125,unknown,2,2018-07-05 14:59:01.851 -0400,2018-07-05 13:09:05.896 -0400,67,4.391837,0,0,47.38,0,0,2018-07-05 14:58:50.421 -0400,552509942.9099101,0,4.1,102.4447
2018-07-05 14:59:03.348 -0400,78,1530817138.859889,40.738712042998,-73.97722370241516,11.48885,-1,-1,10,65,-9999,2796.959652541667,0.7198944091796875,0.496490478515625,-0.452178955078125,2796.949703541667,0.8207716023975002,0.9946776433064939,-0.5622229462592446,0.4192827641963959,0.2059699445962906,0.4901949763298035,0.001649022102355957,-0.01953375339508057,0.007731437683105469,XArbitraryZVertical,-0.4064399302005768,0.3230291604995728,0.2155020385980606,0.8270535469055176,0.709502100944519,0.5330682992935181,-0.4609175026416779,2795.46688125,unknown,2,2018-07-05 14:59:01.851 -0400,2018-07-05 13:09:05.896 -0400,67,4.391837,0,0,47.38,0,0,2018-07-05 14:58:50.421 -0400,552509942.9099101,0,4.1,102.4447
2018-07-05 14:59:03.383 -0400,79,1530817138.859889,40.738712042998,-73.97722370241516,11.48885,-1,-1,10,65,-9999,2796.994442541667,0.7211761474609375,0.4891510009765625,-0.4380645751953125,2796.949703541667,0.8207716023975002,0.9946776433064939,-0.5622229462592446,0.4192827641963959,0.2059699445962906,0.4901949763298035,0.001649022102355957,-0.01953375339508057,0.007731437683105469,XArbitraryZVertical,-0.4064399302005768,0.3230291604995728,0.2155020385980606,0.8270535469055176,0.709502100944519,0.5330682992935181,-0.4609175026416779,2795.46688125,unknown,2,2018-07-05 14:59:01.851 -0400,2018-07-05 13:09:05.896 -0400,67,4.391837,0,0,47.38,0,0,2018-07-05 14:58:50.421 -0400,552509942.9099101,0,4.1,102.4447
2018-07-05 14:59:03.418 -0400,80,1530817138.859889,40.738712042998,-73.97722370241516,11.48885,-1,-1,10,65,-9999,2797.029262541667,0.752410888671875,0.498443603515625,-0.4478759765625,2797.009365541667,0.8217558016178698,1.006735715906001,-0.5251668305225415,0.2672723829746246,0.2029469758272171,0.5715009570121765,-0.004659771919250488,-0.01171809434890747,0.02312356233596802,XArbitraryZVertical,-0.394519180059433,0.33625328540802,0.223086953163147,0.8255426287651062,0.731207013130188,0.50135737657547,-0.462576687335968,2795.46688125,unknown,2,2018-07-05 14:59:01.851 -0400,2018-07-05 13:09:05.896 -0400,67,4.391837,0,0,47.38,0,0,2018-07-05 14:58:50.421 -0400,552509942.9099101,0,4.1,102.4447
2018-07-05 14:59:03.452 -0400,81,1530817138.859889,40.738712042998,-73.97722370241516,11.48885,-1,-1,10,65,-9999,2797.064083541667,0.738494873046875,0.4994354248046875,-0.4611968994140625,2797.009365541667,0.8217558016178698,1.006735715906001,-0.5251668305225415,0.2672723829746246,0.2029469758272171,0.5715009570121765,-0.004659771919250488,-0.01171809434890747,0.02312356233596802,XArbitraryZVertical,-0.394519180059433,0.33625328540802,0.223086953163147,0.8255426287651062,0.731207013130188,0.50135737657547,-0.462576687335968,2795.46688125,unknown,2,2018-07-05 14:59:01.851 -0400,2018-07-05 13:09:05.896 -0400,67,4.391837,0,0,47.38,0,0,2018-07-05 14:58:50.421 -0400,552509942.9099101,0,4.1,102.4447
2018-07-05 14:59:03.501 -0400,82,1530817138.859889,40.738712042998,-73.97722370241516,11.48885,-1,-1,10,65,-9999,2797.098873541667,0.76629638671875,0.4848480224609375,-0.467254638671875,2797.069057541667,0.826541847868587,1.017639730189879,-0.4875318369581665,0.3232326805591583,0.09282287955284119,0.5187070965766907,-0.01130419969558716,0.03391841053962708,0.003013968467712402,XArbitraryZVertical,-0.382895827293396,0.3482933342456818,0.2326837182044983,0.8233715891838074,0.7517369389533997,0.4684467017650604,-0.4641650915145874,2795.46688125,unknown,2,2018-07-05 14:59:01.851 -0400,2018-07-05 13:09:05.896 -0400,67,4.391837,0,0,47.38,0,0,2018-07-05 14:58:50.421 -0400,552509942.9099101,0,4.1,102.4447
2018-07-05 14:59:03.522 -0400,83,1530817138.859889,40.738712042998,-73.97722370241516,11.48885,-1,-1,10,65,-9999,2797.133693541667,0.777191162109375,0.4561309814453125,-0.479400634765625,2797.128719541667,0.8212950485062608,1.023764033620963,-0.4511221463216555,0.3870581686496735,0.1579867005348206,0.4772214591503143,0.003083944320678711,0.03329312801361084,-0.003516077995300293,XArbitraryZVertical,-0.3693596720695496,0.3598812818527222,0.2387768626213074,0.822827160358429,0.768629252910614,0.4359757006168365,-0.4681178033351898,2795.46688125,unknown,2,2018-07-05 14:59:01.851 -0400,2018-07-05 13:09:05.896 -0400,67,4.391837,0,0,47.38,0,0,2018-07-05 14:58:50.421 -0400,552509942.9099101,0,4.1,102.4447
2018-07-05 14:59:03.557 -0400,84,1530817138.859889,40.738712042998,-73.97722370241516,11.48885,-1,-1,10,65,-9999,2797.16849825,0.7795562744140625,0.4302978515625,-0.47265625,2797.128719541667,0.8212950485062608,1.023764033620963,-0.4511221463216555,0.3870581686496735,0.1579867005348206,0.4772214591503143,0.003083944320678711,0.03329312801361084,-0.003516077995300293,XArbitraryZVertical,-0.3693596720695496,0.3598812818527222,0.2387768626213074,0.822827160358429,0.768629252910614,0.4359757006168365,-0.4681178033351898,2795.46688125,unknown,2,2018-07-05 14:59:01.851 -0400,2018-07-05 13:09:05.896 -0400,67,4.391837,0,0,47.38,0,0,2018-07-05 14:58:50.421 -0400,552509942.9099101,0,4.1,102.4447
2018-07-05 14:59:03.591 -0400,85,1530817138.859889,40.738712042998,-73.97722370241516,11.48885,-1,-1,10,65,-9999,2797.20331925,0.7900848388671875,0.4093017578125,-0.45751953125,2797.18839625,0.8161983698794256,1.028164104351704,-0.416354040851418,0.3720177710056305,0.1078281924128532,0.4622572362422943,-0.003194987773895264,0.02000981569290161,0.003984034061431885,XArbitraryZVertical,-0.3561228513717651,0.3701869547367096,0.2448231428861618,0.8223136067390442,0.7831937670707703,0.4044286608695984,-0.4722762703895569,2795.46688125,unknown,2,2018-07-05 14:59:01.851 -0400,2018-07-05 13:09:05.896 -0400,67,4.391837,0,0,47.38,0,0,2018-07-05 14:58:50.421 -0400,552509942.9099101,0,4.1,102.4447
2018-07-05 14:59:03.626 -0400,86,1530817138.859889,40.738712042998,-73.97722370241516,11.48885,-1,-1,10,65,-9999,2797.23813925,0.80859375,0.38494873046875,-0.4583587646484375,2797.18839625,0.8161983698794256,1.028164104351704,-0.416354040851418,0.3720177710056305,0.1078281924128532,0.4622572362422943,-0.003194987773895264,0.02000981569290161,0.003984034061431885,XArbitraryZVertical,-0.3561228513717651,0.3701869547367096,0.2448231428861618,0.8223136067390442,0.7831937670707703,0.4044286608695984,-0.4722762703895569,2795.46688125,unknown,2,2018-07-05 14:59:01.851 -0400,2018-07-05 13:09:05.896 -0400,67,4.391837,0,0,47.38,0,0,2018-07-05 14:58:50.421 -0400,552509942.9099101,0,4.1,102.4447
2018-07-05 14:59:03.661 -0400,87,1530817138.859889,40.738712042998,-73.97722370241516,11.48885,-1,-1,10,65,-9999,2797.27293025,0.8022308349609375,0.3717803955078125,-0.45361328125,2797.24808825,0.8109751182000619,1.033622570562712,-0.3814279943022894,0.3741464912891388,0.123837523162365,0.4697273969650269,0.01117968559265137,0.01270252466201782,0.01657652854919434,XArbitraryZVertical,-0.3428156971931458,0.3808014392852783,0.25066277384758,0.8213621973991394,0.7974140644073486,0.3722462058067322,-0.4749353229999542,2795.46688125,unknown,2,2018-07-05 14:59:01.851 -0400,2018-07-05 13:09:05.896 -0400,67,4.391837,0,0,47.38,0,0,2018-07-05 14:58:50.421 -0400,552509942.9099101,0,4.1,102.4447
2018-07-05 14:59:03.696 -0400,88,1530817138.859889,40.738712042998,-73.97722370241516,11.48885,-1,-1,10,65,-9999,2797.30775025,0.7982025146484375,0.3410491943359375,-0.4406280517578125,2797.24808825,0.8109751182000619,1.033622570562712,-0.3814279943022894,0.3741464912891388,0.123837523162365,0.4697273969650269,0.01117968559265137,0.01270252466201782,0.01657652854919434,XArbitraryZVertical,-0.3428156971931458,0.3808014392852783,0.25066277384758,0.8213621973991394,0.7974140644073486,0.3722462058067322,-0.4749353229999542,2795.46688125,unknown,2,2018-07-05 14:59:01.851 -0400,2018-07-05 13:09:05.896 -0400,67,4.391837,0,0,47.38,0,0,2018-07-05 14:58:50.421 -0400,552509942.9099101,0,4.1,102.4447
2018-07-05 14:59:03.731 -0400,89,1530817138.859889,40.738712042998,-73.97722370241516,11.48885,-1,-1,10,65,-9999,2797.34254025,0.830108642578125,0.3157806396484375,-0.4612884521484375,2797.30775025,0.8054809596417585,1.040834361869182,-0.3464920019482558,0.3711321949958801,0.1826760768890381,0.4620206654071808,-0.01474964618682861,0.01412889361381531,0.02999341487884521,XArbitraryZVertical,-0.3295654952526093,0.3919914960861206,0.2561053037643433,0.8198409676551819,0.8115482926368713,0.3396003842353821,-0.4754585027694702,2795.46688125,unknown,2,2018-07-05 14:59:01.851 -0400,2018-07-05 13:09:05.896 -0400,67,4.391837,0,0,47.38,0,0,2018-07-05 14:58:50.421 -0400,552509942.9099101,0,4.1,102.4447
2018-07-05 14:59:03.765 -0400,90,1530817138.859889,40.738712042998,-73.97722370241516,11.48885,-1,-1,10,65,-9999,2797.37736125,0.842498779296875,0.2938995361328125,-0.4773101806640625,2797.36741225,0.8013354913166222,1.053253516365582,-0.3117775867999879,0.2936468124389648,0.1988497227430344,0.491360068321228,0.01033759117126465,0.001735925674438477,0.004295945167541504,XArbitraryZVertical,-0.3172529339790344,0.4048497974872589,0.2612424492835999,0.81682288646698,0.8271410465240479,0.306751012802124,-0.4708944261074066,2795.46688125,unknown,2,2018-07-05 14:59:01.851 -0400,2018-07-05 13:09:05.896 -0400,67,4.391837,0,0,47.38,0,0,2018-07-05 14:58:50.421 -0400,552509942.9099101,0,4.1,102.4447
2018-07-05 14:59:03.800 -0400,91,1530817138.859889,40.738712042998,-73.97722370241516,11.48885,-1,-1,10,65,-9999,2797.41218125,0.836639404296875,0.2890167236328125,-0.4749603271484375,2797.36741225,0.8013354913166222,1.053253516365582,-0.3117775867999879,0.2936468124389648,0.1988497227430344,0.491360068321228,0.01033759117126465,0.001735925674438477,0.004295945167541504,XArbitraryZVertical,-0.3172529339790344,0.4048497974872589,0.2612424492835999,0.81682288646698,0.8271410465240479,0.306751012802124,-0.4708944261074066,2795.46688125,unknown,2,2018-07-05 14:59:01.851 -0400,2018-07-05 13:09:05.896 -0400,67,4.391837,0,0,47.38,0,0,2018-07-05 14:58:50.421 -0400,552509942.9099101,0,4.1,102.4447
2018-07-05 14:59:03.835 -0400,92,1530817138.859889,40.738712042998,-73.97722370241516,11.48885,-1,-1,10,65,-9999,2797.44697125,0.8544769287109375,0.2777862548828125,-0.462127685546875,2797.42707425,0.8035643303723933,1.062647421019775,-0.2773315743685899,0.2910822033882141,0.1570234447717667,0.5321804285049438,-0.002678751945495605,0.01327341794967651,-0.004549741744995117,XArbitraryZVertical,-0.3059144616127014,0.4152490496635437,0.2694540321826935,0.8132522106170654,0.8402642011642456,0.2737901508808136,-0.46796914935112,2795.46688125,unknown,2,2018-07-05 14:59:01.851 -0400,2018-07-05 13:09:05.896 -0400,67,4.391837,0,0,47.38,0,0,2018-07-05 14:58:50.421 -0400,552509942.9099101,0,4.1,102.4447
2018-07-05 14:59:03.870 -0400,93,1530817138.859889,40.738712042998,-73.97722370241516,11.48885,-1,-1,10,65,-9999,2797.48179225,0.87579345703125,0.270965576171875,-0.45654296875,2797.42707425,0.8035643303723933,1.062647421019775,-0.2773315743685899,0.2910822033882141,0.1570234447717667,0.5321804285049438,-0.002678751945495605,0.01327341794967651,-0.004549741744995117,XArbitraryZVertical,-0.3059144616127014,0.4152490496635437,0.2694540321826935,0.8132522106170654,0.8402642011642456,0.2737901508808136,-0.46796914935112,2795.46688125,unknown,2,2018-07-05 14:59:01.851 -0400,2018-07-05 13:09:05.896 -0400,67,4.391837,0,0,47.38,0,0,2018-07-05 14:58:50.421 -0400,552509942.9099101,0,4.1,102.4447
2018-07-05 14:59:03.905 -0400,94,1530817138.859889,40.738712042998,-73.97722370241516,11.48885,-1,-1,10,65,-9999,2797.51658225,0.8749847412109375,0.245635986328125,-0.4663848876953125,2797.48676625,0.7998997781413254,1.068101806831292,-0.2416944578119869,0.379448413848877,0.06717929989099503,0.4602935314178467,0.02256548404693604,0.03502009809017181,0.009288549423217773,XArbitraryZVertical,-0.2923317551612854,0.4250291883945465,0.2761869132518768,0.8109334111213684,0.8508171439170837,0.2393481731414795,-0.4677846729755402,2795.46688125,unknown,2,2018-07-05 14:59:01.851 -0400,2018-07-05 13:09:05.896 -0400,67,4.391837,0,0,47.38,0,0,2018-07-05 14:58:50.421 -0400,552509942.9099101,0,4.1,102.4447
2018-07-05 14:59:03.941 -0400,95,1530817138.859889,40.738712042998,-73.97722370241516,11.48885,-1,-1,10,65,-9999,2797.55140225,0.873199462890625,0.218780517578125,-0.439239501953125,2797.54642825,0.791689867558712,1.068198073774984,-0.2083772320261598,0.36151522397995,0.07804499566555023,0.4226150810718536,0.00767439603805542,0.01338812708854675,0.02319419384002686,XArbitraryZVertical,-0.2778189480304718,0.4326369762420654,0.2812375128269196,0.8102759122848511,0.8573768734931946,0.2068725079298019,-0.4712837636470795,2795.46688125,unknown,2,2018-07-05 14:59:01.851 -0400,2018-07-05 13:09:05.896 -0400,67,4.391837,0,0,47.38,0,0,2018-07-05 14:58:50.421 -0400,552509942.9099101,0,4.1,102.4447
2018-07-05 14:59:03.976 -0400,96,1530817138.859889,40.738712042998,-73.97722370241516,11.48885,-1,-1,10,65,-9999,2797.58622325,0.931976318359375,0.2227783203125,-0.4730987548828125,2797.54642825,0.791689867558712,1.068198073774984,-0.2083772320261598,0.36151522397995,0.07804499566555023,0.4226150810718536,0.00767439603805542,0.01338812708854675,0.02319419384002686,XArbitraryZVertical,-0.2778189480304718,0.4326369762420654,0.2812375128269196,0.8102759122848511,0.8573768734931946,0.2068725079298019,-0.4712837636470795,2795.46688125,unknown,2,2018-07-05 14:59:01.851 -0400,2018-07-05 13:09:05.896 -0400,67,4.391837,0,0,47.38,0,0,2018-07-05 14:58:50.421 -0400,552509942.9099101,0,4.1,102.4447
2018-07-05 14:59:04.014 -0400,97,1530817138.859889,40.738712042998,-73.97722370241516,11.48885,-1,-1,10,65,-9999,2797.62101325,0.9025421142578125,0.20184326171875,-0.4871673583984375,2797.60609025,0.7801502738721954,1.069143710782351,-0.1801213708550684,0.4437791705131531,-0.02445368096232414,0.3025048673152924,0.08258605003356934,0.04706256091594696,-0.007617294788360596,XArbitraryZVertical,-0.2645235657691956,0.4398630261421204,0.2835014760494232,0.8100461959838867,0.8626043796539307,0.1791489869356155,-0.4730955958366394,2795.46688125,unknown,2,2018-07-05 14:59:01.851 -0400,2018-07-05 13:09:05.896 -0400,67,4.391837,0,0,47.38,0,0,2018-07-05 14:58:50.421 -0400,552509942.9099101,0,4.1,102.4447
2018-07-05 14:59:04.044 -0400,98,1530817138.859889,40.738712042998,-73.97722370241516,11.48885,-1,-1,10,65,-9999,2797.65583425,0.87005615234375,0.2022552490234375,-0.457366943359375,2797.60609025,0.7801502738721954,1.069143710782351,-0.1801213708550684,0.4437791705131531,-0.02445368096232414,0.3025048673152924,0.08258605003356934,0.04706256091594696,-0.007617294788360596,XArbitraryZVertical,-0.2645235657691956,0.4398630261421204,0.2835014760494232,0.8100461959838867,0.8626043796539307,0.1791489869356155,-0.4730955958366394,2795.46688125,unknown,2,2018-07-05 14:59:01.851 -0400,2018-07-05 13:09:05.896 -0400,67,4.391837,0,0,47.38,0,0,2018-07-05 14:58:50.421 -0400,552509942.9099101,0,4.1,102.4447
2018-07-05 14:59:04.081 -0400,99,1530817138.859889,40.738712042998,-73.97722370241516,11.48885,-1,-1,10,65,-9999,2797.69062425,0.9303741455078125,0.1848297119140625,-0.49517822265625,2797.66578225,0.7625065843149158,1.064748282803767,-0.1475718531583542,0.6393415927886963,-0.001458083628676832,0.2879167199134827,0.004895925521850586,0.05521845817565918,0.02208900451660156,XArbitraryZVertical,-0.2473047375679016,0.4462201297283173,0.2849853336811066,0.811487078666687,0.8651601672172546,0.1470368057489395,-0.4794559180736542,2795.46688125,unknown,2,2018-07-05 14:59:01.851 -0400,2018-07-05 13:09:05.896 -0400,67,4.391837,0,0,47.38,0,0,2018-07-05 14:58:50.421 -0400,552509942.9099101,0,4.1,102.4447
2018-07-05 14:59:04.113 -0400,100,1530817138.859889,40.738712042998,-73.97722370241516,11.48885,-1,-1,10,65,-9999,2797.72544425,0.835174560546875,0.1302032470703125,-0.495086669921875,2797.66578225,0.7625065843149158,1.064748282803767,-0.1475718531583542,0.6393415927886963,-0.001458083628676832,0.2879167199134827,0.004895925521850586,0.05521845817565918,0.02208900451660156,XArbitraryZVertical,-0.2473047375679016,0.4462201297283173,0.2849853336811066,0.811487078666687,0.8651601672172546,0.1470368057489395,-0.4794559180736542,2795.46688125,unknown,2,2018-07-05 14:59:01.851 -0400,2018-07-05 13:09:05.896 -0400,67,4.391837,0,0,47.38,0,0,2018-07-05 14:58:50.421 -0400,552509942.9099101,0,4.1,102.4447
2018-07-05 14:59:04.148 -0400,101,1530817138.859889,40.738712042998,-73.97722370241516,11.48885,-1,-1,10,65,-9999,2797.76023425,0.8087921142578125,0.0374755859375,-0.4392547607421875,2797.72544425,0.7222714093351139,1.05300297549872,-0.1166783073294756,0.9926871657371521,-0.1846481561660767,0.07268896698951721,0.005448400974273682,0.03675398230552673,-0.02295827865600586,XArbitraryZVertical,-0.2244119495153427,0.4514864087104797,0.277555376291275,0.8177788853645325,0.8630055785179138,0.1164137497544289,-0.4915986061096191,2795.46688125,unknown,2,2018-07-05 14:59:01.851 -0400,2018-07-05 13:09:05.896 -0400,67,4.391837,0,0,47.38,0,0,2018-07-05 14:58:50.421 -0400,552509942.9099101,0,4.1,102.4447
2018-07-05 14:59:04.183 -0400,102,1530817138.859889,40.738712042998,-73.97722370241516,11.48885,-1,-1,10,65,-9999,2797.79505525,0.8374786376953125,-0.0039215087890625,-0.4366302490234375,2797.78510625,0.6729038133278825,1.040223497300041,-0.08490793598753536,0.7892695665359497,-0.09195017069578171,0.02901005744934082,-0.04831385612487793,-0.06684635579586029,0.07610392570495605,XArbitraryZVertical,-0.1986882388591766,0.4565311968326569,0.2663156688213348,0.8253351449966431,0.8594100475311279,0.08480595052242279,-0.5042045116424561,2795.46688125,unknown,2,2018-07-05 14:59:01.851 -0400,2018-07-05 13:09:05.896 -0400,67,4.391837,0,0,47.38,0,0,2018-07-05 14:58:50.421 -0400,552509942.9099101,0,4.1,102.4447
2018-07-05 14:59:04.218 -0400,103,1530817138.859889,40.738712042998,-73.97722370241516,11.48885,-1,-1,10,65,-9999,2797.82987525,0.8474578857421875,0.001556396484375,-0.4920196533203125,2797.78510625,0.6729038133278825,1.040223497300041,-0.08490793598753536,0.7892695665359497,-0.09195017069578171,0.02901005744934082,-0.04831385612487793,-0.06684635579586029,0.07610392570495605,XArbitraryZVertical,-0.1986882388591766,0.4565311968326569,0.2663156688213348,0.8253351449966431,0.8594100475311279,0.08480595052242279,-0.5042045116424561,2795.46688125,unknown,2,2018-07-05 14:59:01.851 -0400,2018-07-05 13:09:05.896 -0400,67,4.391837,0,0,47.38,0,0,2018-07-05 14:58:50.421 -0400,552509942.9099101,0,4.1,102.4447
2018-07-05 14:59:04.253 -0400,104,1530817138.859889,40.738712042998,-73.97722370241516,11.48885,-1,-1,10,65,-9999,2797.86466525,0.850128173828125,0.0673065185546875,-0.48101806640625,2797.84476825,0.65767401501338,1.036118084653928,-0.06803489301576392,0.1085314378142357,-0.01886610314249992,0.2023221850395203,-0.01441740989685059,-0.05131980776786804,0.01638096570968628,XArbitraryZVertical,-0.1877917647361755,0.4588480889797211,0.2644647657871246,0.8271947503089905,0.8584420680999756,0.06798242032527924,-0.5083853602409363,2795.46688125,unknown,2,2018-07-05 14:59:01.851 -0400,2018-07-05 13:09:05.896 -0400,67,4.391837,0,0,47.38,0,0,2018-07-05 14:58:50.421 -0400,552509942.9099101,0,4.1,102.4447
2018-07-05 14:59:04.288 -0400,105,1530817138.859889,40.738712042998,-73.97722370241516,11.48885,-1,-1,10,65,-9999,2797.89948625,0.9099578857421875,0.06353759765625,-0.520263671875,2797.84476825,0.65767401501338,1.036118084653928,-0.06803489301576392,0.1085314378142357,-0.01886610314249992,0.2023221850395203,-0.01441740989685059,-0.05131980776786804,0.01638096570968628,XArbitraryZVertical,-0.1877917647361755,0.4588480889797211,0.2644647657871246,0.8271947503089905,0.8584420680999756,0.06798242032527924,-0.5083853602409363,2795.46688125,unknown,2,2018-07-05 14:59:01.851 -0400,2018-07-05 13:09:05.896 -0400,67,4.391837,0,0,47.38,0,0,2018-07-05 14:58:50.421 -0400,552509942.9099101,0,4.1,102.4447
2018-07-05 14:59:04.323 -0400,106,1530817138.859889,40.738712042998,-73.97722370241516,11.48885,-1,-1,10,65,-9999,2797.93427625,0.844024658203125,0.0298919677734375,-0.5289764404296875,2797.90446025,0.6534767979651493,1.039670776367593,-0.05340315608443068,0.1665242314338684,0.06367244571447372,0.08681903034448624,0.0419917106628418,0.01499684154987335,-0.002854466438293457,XArbitraryZVertical,-0.1813195496797562,0.462852269411087,0.2658980190753937,0.8259472846984863,0.8610081672668457,0.05337777733802795,-0.5057820081710815,2795.46688125,unknown,2,2018-07-05 14:59:01.851 -0400,2018-07-05 13:09:05.896 -0400,67,4.391837,0,0,47.38,0,0,2018-07-05 14:58:50.421 -0400,552509942.9099101,0,4.1,102.4447
2018-07-05 14:59:04.358 -0400,107,1530817138.859889,40.738712042998,-73.97722370241516,11.48885,-1,-1,10,65,-9999,2797.96909725,0.849090576171875,0.05218505859375,-0.473785400390625,2797.96412225,0.6530943276556461,1.042653688341024,-0.04740856303436034,-0.005441788583993912,0.06944324821233749,0.1132996380329132,-0.03037631511688232,-0.01903998851776123,0.007849633693695068,XArbitraryZVertical,-0.179178312420845,0.4649874866008759,0.2669039070606232,0.8248898983001709,0.8627737164497375,0.04739080742001534,-0.5033635497093201,2795.46688125,unknown,2,2018-07-05 14:59:01.851 -0400,2018-07-05 13:09:05.896 -0400,67,4.391837,0,0,47.38,0,0,2018-07-05 14:58:50.421 -0400,552509942.9099101,0,4.1,102.4447
2018-07-05 14:59:04.392 -0400,108,1530817138.859889,40.738712042998,-73.97722370241516,11.48885,-1,-1,10,65,-9999,2798.00391725,0.89154052734375,0.1112213134765625,-0.492523193359375,2797.96412225,0.6530943276556461,1.042653688341024,-0.04740856303436034,-0.005441788583993912,0.06944324821233749,0.1132996380329132,-0.03037631511688232,-0.01903998851776123,0.007849633693695068,XArbitraryZVertical,-0.179178312420845,0.4649874866008759,0.2669039070606232,0.8248898983001709,0.8627737164497375,0.04739080742001534,-0.5033635497093201,2795.46688125,unknown,2,2018-07-05 14:59:01.851 -0400,2018-07-05 13:09:05.896 -0400,67,4.391837,0,0,47.38,0,0,2018-07-05 14:58:50.421 -0400,552509942.9099101,0,4.1,102.4447
2018-07-05 14:59:04.427 -0400,109,1530817138.859889,40.738712042998,-73.97722370241516,11.48885,-1,-1,10,65,-9999,2798.03870725,0.8364715576171875,0.0381317138671875,-0.510528564453125,2798.02378425,0.6538632115213919,1.04437858837474,-0.04107059432029337,0.1341060698032379,0.008135154843330383,0.09637138992547989,0.006966769695281982,0.05751273036003113,-0.004942715167999268,XArbitraryZVertical,-0.1769982576370239,0.4665447175502777,0.268582284450531,0.8239356279373169,0.863882839679718,0.04105905070900917,-0.5020152926445007,2795.46688125,unknown,2,2018-07-05 14:59:01.851 -0400,2018-07-05 13:09:05.896 -0400,67,4.391837,0,0,47.38,0,0,2018-07-05 14:58:50.421 -0400,552509942.9099101,0,4.1,102.4447
2018-07-05 14:59:04.462 -0400,110,1530817138.859889,40.738712042998,-73.97722370241516,11.48885,-1,-1,10,65,-9999,2798.07352825,0.83892822265625,-0.0335693359375,-0.4688873291015625,2798.02378425,0.6538632115213919,1.04437858837474,-0.04107059432029337,0.1341060698032379,0.008135154843330383,0.09637138992547989,0.006966769695281982,0.05751273036003113,-0.004942715167999268,XArbitraryZVertical,-0.1769982576370239,0.4665447175502777,0.268582284450531,0.8239356279373169,0.863882839679718,0.04105905070900917,-0.5020152926445007,2795.46688125,unknown,2,2018-07-05 14:59:01.851 -0400,2018-07-05 13:09:05.896 -0400,67,4.391837,0,0,47.38,0,0,2018-07-05 14:58:50.421 -0400,552509942.9099101,0,4.1,102.4447
2018-07-05 14:59:04.504 -0400,111,1530817138.859889,40.738712042998,-73.97722370241516,11.48885,-1,-1,10,65,-9999,2798.10831825,0.8335113525390625,-0.045196533203125,-0.4996795654296875,2798.08347625,0.65107259447988,1.04968323528134,-0.02904376419609978,0.03897932544350624,0.1790477782487869,0.2354664951562881,-0.02797102928161621,-0.06260901689529419,0.02874821424484253,XArbitraryZVertical,-0.1721427440643311,0.4706900417804718,0.2698473632335663,0.8221915364265442,0.8668992519378662,0.02903968095779419,-0.4976355135440826,2795.46688125,unknown,2,2018-07-05 14:59:01.851 -0400,2018-07-05 13:09:05.896 -0400,67,4.391837,0,0,47.38,0,0,2018-07-05 14:58:50.421 -0400,552509942.9099101,0,4.1,102.4447
2018-07-05 14:59:04.531 -0400,112,1530817138.859889,40.738712042998,-73.97722370241516,11.48885,-1,-1,10,65,-9999,2798.14313825,0.8931732177734375,-0.009124755859375,-0.49298095703125,2798.08347625,0.65107259447988,1.04968323528134,-0.02904376419609978,0.03897932544350624,0.1790477782487869,0.2354664951562881,-0.02797102928161621,-0.06260901689529419,0.02874821424484253,XArbitraryZVertical,-0.1721427440643311,0.4706900417804718,0.2698473632335663,0.8221915364265442,0.8668992519378662,0.02903968095779419,-0.4976355135440826,2795.46688125,unknown,2,2018-07-05 14:59:01.851 -0400,2018-07-05 13:09:05.896 -0400,67,4.391837,0,0,47.38,0,0,2018-07-05 14:58:50.421 -0400,552509942.9099101,0,4.1,102.4447
2018-07-05 14:59:04.566 -0400,113,1530817138.859889,40.738712042998,-73.97722370241516,11.48885,-1,-1,10,65,-9999,2798.177972,0.9009246826171875,0.006378173828125,-0.4572601318359375,2798.14313825,0.6692472451731963,1.064315350947847,-0.02333975022421907,-0.3558875322341919,0.251863420009613,0.2310395240783691,0.0006597042083740234,-0.04511192440986633,-0.0209498405456543,XArbitraryZVertical,-0.1761220991611481,0.4759156703948975,0.277386873960495,0.8158066272735596,0.874218225479126,0.02333763055503368,-0.4849705696105957,2795.46688125,unknown,2,2018-07-05 14:59:01.851 -0400,2018-07-05 13:09:05.896 -0400,67,4.391837,0,0,47.38,0,0,2018-07-05 14:58:50.421 -0400,552509942.9099101,0,4.1,102.4447
2018-07-05 14:59:04.601 -0400,114,1530817138.859889,40.738712042998,-73.97722370241516,11.48885,-1,-1,10,65,-9999,2798.212762,0.9194488525390625,0.01947021484375,-0.426300048828125,2798.202813,0.6955802697473018,1.079988439504705,-0.016255032227889,-0.3254645764827728,0.3347896933555603,0.34996297955513,0.02703934907913208,-0.01674261689186096,0.038918137550354,XArbitraryZVertical,-0.1817748248577118,0.4809573292732239,0.2883882224559784,0.8077553510665894,0.8818351626396179,0.01625431701540947,-0.4712759256362915,2795.46688125,unknown,2,2018-07-05 14:59:01.851 -0400,2018-07-05 13:09:05.896 -0400,67,4.391837,0,0,47.38,0,0,2018-07-05 14:58:50.421 -0400,552509942.9099101,0,4.1,102.4447
2018-07-05 14:59:04.636 -0400,115,1530817138.859889,40.738712042998,-73.97722370241516,11.48885,-1,-1,10,65,-9999,2798.247582,0.8990020751953125,0.0151519775390625,-0.459197998046875,2798.202813,0.6955802697473018,1.079988439504705,-0.016255032227889,-0.3254645764827728,0.3347896933555603,0.34996297955513,0.02703934907913208,-0.01674261689186096,0.038918137550354,XArbitraryZVertical,-0.1817748248577118,0.4809573292732239,0.2883882224559784,0.8077553510665894,0.8818351626396179,0.01625431701540947,-0.4712759256362915,2795.46688125,unknown,2,2018-07-05 14:59:01.851 -0400,2018-07-05 13:09:05.896 -0400,67,4.391837,0,0,47.38,0,0,2018-07-05 14:58:50.421 -0400,552509942.9099101,0,4.1,102.4447
2018-07-05 14:59:04.670 -0400,116,1530817138.859889,40.738712042998,-73.97722370241516,11.48885,-1,-1,10,65,-9999,2798.282372,0.90484619140625,0.0224609375,-0.4605712890625,2798.262506,0.7254001898007781,1.099053810082005,-0.01683507373248332,-0.4921084046363831,0.3200691044330597,0.09690002351999283,0.01230311393737793,-0.001178771257400513,-0.01013350486755371,XArbitraryZVertical,-0.1920110881328583,0.4857411682605743,0.2984423935413361,0.7988231182098389,0.8906510472297668,0.01683427765965462,-0.4543745219707489,2795.46688125,unknown,2,2018-07-05 14:59:01.851 -0400,2018-07-05 13:09:05.896 -0400,67,4.391837,0,0,47.38,0,0,2018-07-05 14:58:50.421 -0400,552509942.9099101,0,4.1,102.4447
2018-07-05 14:59:04.706 -0400,117,1530817138.859889,40.738712042998,-73.97722370241516,11.48885,-1,-1,10,65,-9999,2798.317193,0.9122314453125,0.0917816162109375,-0.5103759765625,2798.262506,0.7254001898007781,1.099053810082005,-0.01683507373248332,-0.4921084046363831,0.3200691044330597,0.09690002351999283,0.01230311393737793,-0.001178771257400513,-0.01013350486755371,XArbitraryZVertical,-0.1920110881328583,0.4857411682605743,0.2984423935413361,0.7988231182098389,0.8906510472297668,0.01683427765965462,-0.4543745219707489,2795.46688125,unknown,2,2018-07-05 14:59:01.851 -0400,2018-07-05 13:09:05.896 -0400,67,4.391837,0,0,47.38,0,0,2018-07-05 14:58:50.421 -0400,552509942.9099101,0,4.1,102.4447
2018-07-05 14:59:04.740 -0400,118,1530817138.859889,40.738712042998,-73.97722370241516,11.48885,-1,-1,10,65,-9999,2798.352014,0.922027587890625,-0.0111083984375,-0.4702301025390625,2798.322167,0.7486684170810822,1.112465194308562,-0.0324813175959893,-0.3227783441543579,-0.01931804046034813,-0.2521697580814362,0.03422343730926514,0.04944884777069092,-0.01926839351654053,XArbitraryZVertical,-0.2058727592229843,0.4863200485706329,0.3025091588497162,0.7934710383415222,0.8963185548782349,0.03247560560703278,-0.4422184228897095,2795.46688125,unknown,2,2018-07-05 14:59:01.851 -0400,2018-07-05 13:09:05.896 -0400,67,4.391837,0,0,47.38,0,0,2018-07-05 14:58:50.421 -0400,552509942.9099101,0,4.1,102.4447
2018-07-05 14:59:04.775 -0400,119,1530817138.859889,40.738712042998,-73.97722370241516,11.48885,-1,-1,10,65,-9999,2798.386804,0.906341552734375,0.084686279296875,-0.39697265625,2798.381829,0.7657676025350286,1.115134689626077,-0.04994988555831171,-0.5283926725387573,-0.03756309300661087,-0.04588901624083519,0.02212637662887573,-0.05871817469596863,0.01601493358612061,XArbitraryZVertical,-0.2172733992338181,0.4827407002449036,0.3046582639217377,0.7917927503585815,0.8968494534492493,0.04992911592125893,-0.4395073652267456,2795.46688125,unknown,2,2018-07-05 14:59:01.851 -0400,2018-07-05 13:09:05.896 -0400,67,4.391837,0,0,47.38,0,0,2018-07-05 14:58:50.421 -0400,552509942.9099101,0,4.1,102.4447
2018-07-05 14:59:04.810 -0400,120,1530817138.859889,40.738712042998,-73.97722370241516,11.48885,-1,-1,10,65,-9999,2798.421624,0.8734893798828125,0.096405029296875,-0.4129180908203125,2798.381829,0.7657676025350286,1.115134689626077,-0.04994988555831171,-0.5283926725387573,-0.03756309300661087,-0.04588901624083519,0.02212637662887573,-0.05871817469596863,0.01601493358612061,XArbitraryZVertical,-0.2172733992338181,0.4827407002449036,0.3046582639217377,0.7917927503585815,0.8968494534492493,0.04992911592125893,-0.4395073652267456,2795.46688125,unknown,2,2018-07-05 14:59:01.851 -0400,2018-07-05 13:09:05.896 -0400,67,4.391837,0,0,47.38,0,0,2018-07-05 14:58:50.421 -0400,552509942.9099101,0,4.1,102.4447
2018-07-05 14:59:04.845 -0400,121,1530817138.859889,40.738712042998,-73.97722370241516,11.48885,-1,-1,10,65,-9999,2798.456414,0.8992156982421875,0.0583953857421875,-0.4064178466796875,2798.441491,0.7826016671346989,1.113554879246062,-0.06002167463084723,-0.1980996280908585,-0.006645655259490013,0.01235717907547951,0.003512561321258545,-0.01915311813354492,0.03905272483825684,XArbitraryZVertical,-0.225005641579628,0.4785737097263336,0.3089827001094818,0.7904860377311707,0.8956573605537415,0.05998564139008522,-0.4406793415546417,2795.46688125,unknown,2,2018-07-05 14:59:01.851 -0400,2018-07-05 13:09:05.896 -0400,67,4.391837,0,0,47.38,0,0,2018-07-05 14:58:50.421 -0400,552509942.9099101,0,4.1,102.4447
2018-07-05 14:59:04.879 -0400,122,1530817138.859889,40.738712042998,-73.97722370241516,11.48885,-1,-1,10,65,-9999,2798.491235,0.9071044921875,0.1076507568359375,-0.419769287109375,2798.441491,0.7826016671346989,1.113554879246062,-0.06002167463084723,-0.1980996280908585,-0.006645655259490013,0.01235717907547951,0.003512561321258545,-0.01915311813354492,0.03905272483825684,XArbitraryZVertical,-0.225005641579628,0.4785737097263336,0.3089827001094818,0.7904860377311707,0.8956573605537415,0.05998564139008522,-0.4406793415546417,2795.46688125,unknown,2,2018-07-05 14:59:01.851 -0400,2018-07-05 13:09:05.896 -0400,67,4.391837,0,0,47.38,0,0,2018-07-05 14:58:50.421 -0400,552509942.9099101,0,4.1,102.4447
2018-07-05 14:59:04.914 -0400,123,1530817138.859889,40.738712042998,-73.97722370241516,11.48885,-1,-1,10,65,-9999,2798.526025,0.9296417236328125,0.066253662109375,-0.428924560546875,2798.501183,0.7978660017869,1.113903092719652,-0.07244502634430104,-0.2333029508590698,0.01750735193490982,-0.1487096697092056,0.01203173398971558,0.03526908159255981,0.02023535966873169,XArbitraryZVertical,-0.2335204482078552,0.4748324751853943,0.3118751347064972,0.7891355156898499,0.8950727581977844,0.07238167524337769,-0.4400046467781067,2795.46688125,unknown,2,2018-07-05 14:59:01.851 -0400,2018-07-05 13:09:05.896 -0400,67,4.391837,0,0,47.38,0,0,2018-07-05 14:58:50.421 -0400,552509942.9099101,0,4.1,102.4447
2018-07-05 14:59:04.949 -0400,124,1530817138.859889,40.738712042998,-73.97722370241516,11.48885,-1,-1,10,65,-9999,2798.560845,0.8930816650390625,0.137786865234375,-0.391571044921875,2798.501183,0.7978660017869,1.113903092719652,-0.07244502634430104,-0.2333029508590698,0.01750735193490982,-0.1487096697092056,0.01203173398971558,0.03526908159255981,0.02023535966873169,XArbitraryZVertical,-0.2335204482078552,0.4748324751853943,0.3118751347064972,0.7891355156898499,0.8950727581977844,0.07238167524337769,-0.4400046467781067,2795.46688125,unknown,2,2018-07-05 14:59:01.851 -0400,2018-07-05 13:09:05.896 -0400,67,4.391837,0,0,47.38,0,0,2018-07-05 14:58:50.421 -0400,552509942.9099101,0,4.1,102.4447
2018-07-05 14:59:05.001 -0400,125,1530817138.859889,40.738712042998,-73.97722370241516,11.48885,-1,-1,10,65,-9999,2798.595666,0.912689208984375,0.1646270751953125,-0.4068145751953125,2798.560845,0.813407509018781,1.115532203965379,-0.08469511709611359,-0.0699496865272522,0.08713462948799133,-0.008342040702700615,0.03023064136505127,-0.03005897998809814,0.01786559820175171,XArbitraryZVertical,-0.2421808391809464,0.4714730679988861,0.3147485852241516,0.7873968482017517,0.8949249982833862,0.08459389954805374,-0.4381231665611267,2795.46688125,unknown,2,2018-07-05 14:59:01.851 -0400,2018-07-05 13:09:05.896 -0400,67,4.391837,0,0,47.38,0,0,2018-07-05 14:58:50.421 -0400,552509942.9099101,0,4.1,102.4447
2018-07-05 14:59:05.019 -0400,126,1530817138.859889,40.738712042998,-73.97722370241516,11.48885,-1,-1,10,65,-9999,2798.630456,0.9720611572265625,0.2066802978515625,-0.45318603515625,2798.620507,0.8185892907677373,1.11175870134783,-0.09240190335649319,0.1406893283128738,0.0631086602807045,-0.04409637674689293,0.0567626953125,-0.07232722640037537,0.02743780612945557,XArbitraryZVertical,-0.2457674890756607,0.4679751992225647,0.315324991941452,0.7881413102149963,0.8926544189453125,0.09227047115564346,-0.4411951005458832,2795.46688125,unknown,2,2018-07-05 14:59:01.851 -0400,2018-07-05 13:09:05.896 -0400,67,4.391837,0,0,47.38,0,0,2018-07-05 14:58:50.421 -0400,552509942.9099101,0,4.1,102.4447
2018-07-05 14:59:05.054 -0400,127,1530817138.859889,40.738712042998,-73.97722370241516,11.48885,-1,-1,10,65,-9999,2798.665277,0.9018096923828125,0.15338134765625,-0.3918914794921875,2798.620507,0.8185892907677373,1.11175870134783,-0.09240190335649319,0.1406893283128738,0.0631086602807045,-0.04409637674689293,0.0567626953125,-0.07232722640037537,0.02743780612945557,XArbitraryZVertical,-0.2457674890756607,0.4679751992225647,0.315324991941452,0.7881413102149963,0.8926544189453125,0.09227047115564346,-0.4411951005458832,2795.46688125,unknown,2,2018-07-05 14:59:01.851 -0400,2018-07-05 13:09:05.896 -0400,67,4.391837,0,0,47.38,0,0,2018-07-05 14:58:50.421 -0400,552509942.9099101,0,4.1,102.4447
2018-07-05 14:59:05.088 -0400,128,1530817138.859889,40.738712042998,-73.97722370241516,11.48885,-1,-1,10,65,-9999,2798.700067,0.857025146484375,0.0973052978515625,-0.381439208984375,2798.6802,0.8187813396393501,1.104990287416199,-0.09942604393374163,0.09144775569438934,-0.1182661950588226,-0.1210815086960793,0.02980703115463257,0.0482901930809021,0.05326312780380249,XArbitraryZVertical,-0.2474478334188461,0.4640121161937714,0.3144847750663757,0.790291428565979,0.8890467286109924,0.09926231205463409,-0.4469246566295624,2795.46688125,unknown,2,2018-07-05 14:59:01.851 -0400,2018-07-05 13:09:05.896 -0400,67,4.391837,0,0,47.38,0,0,2018-07-05 14:58:50.421 -0400,552509942.9099101,0,4.1,102.4447
2018-07-05 14:59:05.123 -0400,129,1530817138.859889,40.738712042998,-73.97722370241516,11.48885,-1,-1,10,65,-9999,2798.734887,0.8835296630859375,0.1938629150390625,-0.40997314453125,2798.6802,0.8187813396393501,1.104990287416199,-0.09942604393374163,0.09144775569438934,-0.1182661950588226,-0.1210815086960793,0.02980703115463257,0.0482901930809021,0.05326312780380249,XArbitraryZVertical,-0.2474478334188461,0.4640121161937714,0.3144847750663757,0.790291428565979,0.8890467286109924,0.09926231205463409,-0.4469246566295624,2795.46688125,unknown,2,2018-07-05 14:59:01.851 -0400,2018-07-05 13:09:05.896 -0400,67,4.391837,0,0,47.38,0,0,2018-07-05 14:58:50.421 -0400,552509942.9099101,0,4.1,102.4447
2018-07-05 14:59:05.158 -0400,130,1530817138.859889,40.738712042998,-73.97722370241516,11.48885,-1,-1,10,65,-9999,2798.769708,0.91290283203125,0.124298095703125,-0.4552001953125,2798.739861,0.8086941445106226,1.100053688713899,-0.1028539065328348,0.2149595022201538,-0.06048784777522087,-0.2477895766496658,-0.01324540376663208,0.08386602997779846,0.04540461301803589,XArbitraryZVertical,-0.2456610649824142,0.4626825153827667,0.3102472722530365,0.7932975292205811,0.8865211606025696,0.1026726514101028,-0.4511510729789734,2795.46688125,unknown,2,2018-07-05 14:59:01.851 -0400,2018-07-05 13:09:05.896 -0400,67,4.391837,0,0,47.38,0,0,2018-07-05 14:58:50.421 -0400,552509942.9099101,0,4.1,102.4447
2018-07-05 14:59:05.192 -0400,131,1530817138.859889,40.738712042998,-73.97722370241516,11.48885,-1,-1,10,65,-9999,2798.804498,0.8701324462890625,0.0604248046875,-0.4496307373046875,2798.799523,0.7790994300668448,1.092275742154196,-0.1062713317626924,0.4205568134784698,-0.0367465652525425,-0.1712242364883423,0.001135706901550293,-0.02613061666488647,0.002149343490600586,XArbitraryZVertical,-0.2389567345380783,0.4625640511512756,0.298552542924881,0.7998744249343872,0.8826686143875122,0.106071412563324,-0.457868367433548,2795.46688125,unknown,2,2018-07-05 14:59:01.851 -0400,2018-07-05 13:09:05.896 -0400,67,4.391837,0,0,47.38,0,0,2018-07-05 14:58:50.421 -0400,552509942.9099101,0,4.1,102.4447
2018-07-05 14:59:05.227 -0400,132,1530817138.859889,40.738712042998,-73.97722370241516,11.48885,-1,-1,10,65,-9999,2798.839318,0.872711181640625,0.1022796630859375,-0.427520751953125,2798.799523,0.7790994300668448,1.092275742154196,-0.1062713317626924,0.4205568134784698,-0.0367465652525425,-0.1712242364883423,0.001135706901550293,-0.02613061666488647,0.002149343490600586,XArbitraryZVertical,-0.2389567345380783,0.4625640511512756,0.298552542924881,0.7998744249343872,0.8826686143875122,0.106071412563324,-0.457868367433548,2795.46688125,unknown,2,2018-07-05 14:59:01.851 -0400,2018-07-05 13:09:05.896 -0400,67,4.391837,0,0,47.38,0,0,2018-07-05 14:58:50.421 -0400,552509942.9099101,0,4.1,102.4447
2018-07-05 14:59:05.262 -0400,133,1530817138.859889,40.738712042998,-73.97722370241516,11.48885,-1,-1,10,65,-9999,2798.874108,0.897613525390625,0.169097900390625,-0.443511962890625,2798.859216,0.7594421530130326,1.088832375340696,-0.1021049771242758,0.3254206776618958,-0.06238082051277161,-0.09368669986724854,-8.344650268554688e-07,0.02620038390159607,0.03038066625595093,XArbitraryZVertical,-0.2322661429643631,0.4642193019390106,0.292114794254303,0.8032559156417847,0.8814705610275269,0.1019276529550552,-0.4611057639122009,2795.46688125,unknown,2,2018-07-05 14:59:01.851 -0400,2018-07-05 13:09:05.896 -0400,67,4.391837,0,0,47.38,0,0,2018-07-05 14:58:50.421 -0400,552509942.9099101,0,4.1,102.4447
2018-07-05 14:59:05.297 -0400,134,1530817138.859889,40.738712042998,-73.97722370241516,11.48885,-1,-1,10,65,-9999,2798.908929,0.8673553466796875,0.1023712158203125,-0.464111328125,2798.859216,0.7594421530130326,1.088832375340696,-0.1021049771242758,0.3254206776618958,-0.06238082051277161,-0.09368669986724854,-8.344650268554688e-07,0.02620038390159607,0.03038066625595093,XArbitraryZVertical,-0.2322661429643631,0.4642193019390106,0.292114794254303,0.8032559156417847,0.8814705610275269,0.1019276529550552,-0.4611057639122009,2795.46688125,unknown,2,2018-07-05 14:59:01.851 -0400,2018-07-05 13:09:05.896 -0400,67,4.391837,0,0,47.38,0,0,2018-07-05 14:58:50.421 -0400,552509942.9099101,0,4.1,102.4447
2018-07-05 14:59:05.332 -0400,135,1530817138.859889,40.738712042998,-73.97722370241516,11.48885,-1,-1,10,65,-9999,2798.943749,0.8856353759765625,0.0400390625,-0.4792327880859375,2798.918878,0.7256898318235512,1.081087446614402,-0.09593432342982043,0.6729228496551514,-0.0652351975440979,-0.189498171210289,-0.01105582714080811,0.006583988666534424,0.004094362258911133,XArbitraryZVertical,-0.2208766937255859,0.4659513235092163,0.2809138298034668,0.809437096118927,0.8784112334251404,0.09578723460435867,-0.4682056903839111,2795.46688125,unknown,2,2018-07-05 14:59:01.851 -0400,2018-07-05 13:09:05.896 -0400,67,4.391837,0,0,47.38,0,0,2018-07-05 14:58:50.421 -0400,552509942.9099101,0,4.1,102.4447
2018-07-05 14:59:05.366 -0400,136,1530817138.859889,40.738712042998,-73.97722370241516,11.48885,-1,-1,10,65,-9999,2798.978539,0.888458251953125,0.027435302734375,-0.50750732421875,2798.918878,0.7256898318235512,1.081087446614402,-0.09593432342982043,0.6729228496551514,-0.0652351975440979,-0.189498171210289,-0.01105582714080811,0.006583988666534424,0.004094362258911133,XArbitraryZVertical,-0.2208766937255859,0.4659513235092163,0.2809138298034668,0.809437096118927,0.8784112334251404,0.09578723460435867,-0.4682056903839111,2795.46688125,unknown,2,2018-07-05 14:59:01.851 -0400,2018-07-05 13:09:05.896 -0400,67,4.391837,0,0,47.38,0,0,2018-07-05 14:58:50.421 -0400,552509942.9099101,0,4.1,102.4447
2018-07-05 14:59:05.402 -0400,137,1530817138.859889,40.738712042998,-73.97722370241516,11.48885,-1,-1,10,65,-9999,2799.01336,0.87518310546875,0.042022705078125,-0.49786376953125,2798.978539,0.6897972088273693,1.074497323333692,-0.09197009627569423,0.4101270139217377,-0.08892108500003815,-0.2279318571090698,0.02149146795272827,-0.0639321506023407,-0.02739495038986206,XArbitraryZVertical,-0.2100159376859665,0.4677740633487701,0.2680222690105438,0.8156243562698364,0.875633716583252,0.09184049814939499,-0.4741614758968353,2795.46688125,unknown,2,2018-07-05 14:59:01.851 -0400,2018-07-05 13:09:05.896 -0400,67,4.391837,0,0,47.38,0,0,2018-07-05 14:58:50.421 -0400,552509942.9099101,0,4.1,102.4447
2018-07-05 14:59:05.436 -0400,138,1530817138.859889,40.738712042998,-73.97722370241516,11.48885,-1,-1,10,65,-9999,2799.04815,0.9259490966796875,0.043060302734375,-0.5138092041015625,2799.038201,0.6691789514772267,1.068893110053851,-0.09440434683973073,0.1853740960359573,-0.05958423763513565,-0.1698104292154312,0.01944774389266968,-0.0478469580411911,-0.02063572406768799,XArbitraryZVertical,-0.2054330259561539,0.4672484695911407,0.2595727443695068,0.819814920425415,0.8727641701698303,0.0942641869187355,-0.4789522886276245,2795.46688125,unknown,2,2018-07-05 14:59:01.851 -0400,2018-07-05 13:09:05.896 -0400,67,4.391837,0,0,47.38,0,0,2018-07-05 14:58:50.421 -0400,552509942.9099101,0,4.1,102.4447
2018-07-05 14:59:05.476 -0400,139,1530817138.859889,40.738712042998,-73.97722370241516,11.48885,-1,-1,10,65,-9999,2799.082971,0.86260986328125,0.0727386474609375,-0.5061798095703125,2799.038201,0.6691789514772267,1.068893110053851,-0.09440434683973073,0.1853740960359573,-0.05958423763513565,-0.1698104292154312,0.01944774389266968,-0.0478469580411911,-0.02063572406768799,XArbitraryZVertical,-0.2054330259561539,0.4672484695911407,0.2595727443695068,0.819814920425415,0.8727641701698303,0.0942641869187355,-0.4789522886276245,2795.46688125,unknown,2,2018-07-05 14:59:01.851 -0400,2018-07-05 13:09:05.896 -0400,67,4.391837,0,0,47.38,0,0,2018-07-05 14:58:50.421 -0400,552509942.9099101,0,4.1,102.4447
2018-07-05 14:59:05.512 -0400,140,1530817138.859889,40.738712042998,-73.97722370241516,11.48885,-1,-1,10,65,-9999,2799.117791,0.8538970947265625,0.132110595703125,-0.4777984619140625,2799.097894,0.6639103370264076,1.060781486772253,-0.09572638116256713,0.02710422500967979,-0.1291894167661667,0.005934034008532763,-0.01107478141784668,-0.01457135379314423,-0.0144115686416626,XArbitraryZVertical,-0.2036890685558319,0.4642557799816132,0.2579136788845062,0.8224694728851318,0.8687407970428467,0.09558025002479553,-0.4859546720981598,2795.46688125,unknown,2,2018-07-05 14:59:01.851 -0400,2018-07-05 13:09:05.896 -0400,67,4.391837,0,0,47.38,0,0,2018-07-05 14:58:50.421 -0400,552509942.9099101,0,4.1,102.4447
2018-07-05 14:59:05.541 -0400,141,1530817138.859889,40.738712042998,-73.97722370241516,11.48885,-1,-1,10,65,-9999,2799.152581,0.86346435546875,0.1330718994140625,-0.4659881591796875,2799.097894,0.6639103370264076,1.060781486772253,-0.09572638116256713,0.02710422500967979,-0.1291894167661667,0.005934034008532763,-0.01107478141784668,-0.01457135379314423,-0.0144115686416626,XArbitraryZVertical,-0.2036890685558319,0.4642557799816132,0.2579136788845062,0.8224694728851318,0.8687407970428467,0.09558025002479553,-0.4859546720981598,2795.46688125,unknown,2,2018-07-05 14:59:01.851 -0400,2018-07-05 13:09:05.896 -0400,67,4.391837,0,0,47.38,0,0,2018-07-05 14:58:50.421 -0400,552509942.9099101,0,4.1,102.4447
2018-07-05 14:59:05.575 -0400,142,1530817138.859889,40.738712042998,-73.97722370241516,11.48885,-1,-1,10,65,-9999,2799.18740575,0.857635498046875,0.0950469970703125,-0.463287353515625,2799.15755975,0.6579555063652547,1.051578200384797,-0.09230351977040609,0.2022475451231003,-0.1285752952098846,-0.0130364615470171,-0.004464268684387207,0.04527868330478668,0.02807003259658813,XArbitraryZVertical,-0.1997418999671936,0.4615829586982727,0.2572264075279236,0.8251527547836304,0.8645106554031372,0.09217250347137451,-0.4940886795520782,2795.46688125,unknown,2,2018-07-05 14:59:01.851 -0400,2018-07-05 13:09:05.896 -0400,67,4.391837,0,0,47.38,0,0,2018-07-05 14:58:50.421 -0400,552509942.9099101,0,4.1,102.4447
2018-07-05 14:59:05.610 -0400,143,1530817138.859889,40.738712042998,-73.97722370241516,11.48885,-1,-1,10,65,-9999,2799.22219575,0.87017822265625,0.07952880859375,-0.490966796875,2799.21722075,0.645754256901317,1.045271046524981,-0.08526342088356412,0.1947442889213562,-0.07407130300998688,0.002813408151268959,-0.002588033676147461,-0.0007942914962768555,0.01997095346450806,XArbitraryZVertical,-0.1932610124349594,0.4612243175506592,0.2545150518417358,0.8277334570884705,0.86191725730896,0.08516015112400055,-0.4998446106910706,2795.46688125,unknown,2,2018-07-05 14:59:01.851 -0400,2018-07-05 13:09:05.896 -0400,67,4.391837,0,0,47.38,0,0,2018-07-05 14:58:50.421 -0400,552509945.4741293,0,4.22,102.4439
2018-07-05 14:59:05.645 -0400,144,1530817138.859889,40.738712042998,-73.97722370241516,11.48885,-1,-1,10,65,-9999,2799.25701575,0.8542633056640625,0.0619964599609375,-0.4990081787109375,2799.21722075,0.645754256901317,1.045271046524981,-0.08526342088356412,0.1947442889213562,-0.07407130300998688,0.002813408151268959,-0.002588033676147461,-0.0007942914962768555,0.01997095346450806,XArbitraryZVertical,-0.1932610124349594,0.4612243175506592,0.2545150518417358,0.8277334570884705,0.86191725730896,0.08516015112400055,-0.4998446106910706,2795.46688125,unknown,2,2018-07-05 14:59:01.851 -0400,2018-07-05 13:09:05.896 -0400,67,4.391837,0,0,47.38,0,0,2018-07-05 14:58:50.421 -0400,552509945.4741293,0,4.22,102.4439
2018-07-05 14:59:05.680 -0400,145,1530817138.859889,40.738712042998,-73.97722370241516,11.48885,-1,-1,10,65,-9999,2799.29183675,0.8489532470703125,0.0454254150390625,-0.4996337890625,2799.27691375,0.6368159451913924,1.040871066430881,-0.0788750996208078,0.1719809025526047,-0.04632515832781792,0.04004932567477226,-0.009239792823791504,-0.02653199434280396,0.001882672309875488,XArbitraryZVertical,-0.188036248087883,0.4611875414848328,0.2527760863304138,0.829488217830658,0.8601614236831665,0.07879333943128586,-0.5038968324661255,2795.46688125,unknown,2,2018-07-05 14:59:01.851 -0400,2018-07-05 13:09:05.896 -0400,67,4.391837,0,0,47.38,0,0,2018-07-05 14:58:50.421 -0400,552509945.4741293,0,4.22,102.4439
2018-07-05 14:59:05.715 -0400,146,1530817138.859889,40.738712042998,-73.97722370241516,11.48885,-1,-1,10,65,-9999,2799.32662675,0.8689117431640625,0.046417236328125,-0.5023040771484375,2799.27691375,0.6368159451913924,1.040871066430881,-0.0788750996208078,0.1719809025526047,-0.04632515832781792,0.04004932567477226,-0.009239792823791504,-0.02653199434280396,0.001882672309875488,XArbitraryZVertical,-0.188036248087883,0.4611875414848328,0.2527760863304138,0.829488217830658,0.8601614236831665,0.07879333943128586,-0.5038968324661255,2799.28417675,unknown,2,2018-07-05 14:59:05.668 -0400,2018-07-05 13:09:05.896 -0400,67,4.391837,0,0,47.38,0,0,2018-07-05 14:58:50.421 -0400,552509945.4741293,0,4.22,102.4439
2018-07-05 14:59:05.749 -0400,147,1530817138.859889,40.738712042998,-73.97722370241516,11.48885,-1,-1,10,65,-9999,2799.36144775,0.847625732421875,0.046905517578125,-0.5093841552734375,2799.33657575,0.6325744998923444,1.037101943321257,-0.07328007637395854,0.06659238040447235,-0.06638142466545105,0.05641944706439972,0.01028972864151001,-0.02679726481437683,0.005047500133514404,XArbitraryZVertical,-0.1842932850122452,0.4608255624771118,0.2527140080928802,0.8305475115776062,0.8586220145225525,0.07321450859308243,-0.5073515772819519,2799.28417675,unknown,2,2018-07-05 14:59:05.668 -0400,2018-07-05 13:09:05.896 -0400,67,4.391837,0,0,47.38,0,0,2018-07-05 14:58:50.421 -0400,552509945.4741293,0,4.22,102.4439
2018-07-05 14:59:05.784 -0400,148,1530817138.859889,40.738712042998,-73.97722370241516,11.48885,-1,-1,10,65,-9999,2799.39623775,0.839813232421875,0.06298828125,-0.5084381103515625,2799.33657575,0.6325744998923444,1.037101943321257,-0.07328007637395854,0.06659238040447235,-0.06638142466545105,0.05641944706439972,0.01028972864151001,-0.02679726481437683,0.005047500133514404,XArbitraryZVertical,-0.1842932850122452,0.4608255624771118,0.2527140080928802,0.8305475115776062,0.8586220145225525,0.07321450859308243,-0.5073515772819519,2799.28417675,unknown,2,2018-07-05 14:59:05.668 -0400,2018-07-05 13:09:05.896 -0400,67,4.391837,0,0,47.38,0,0,2018-07-05 14:58:50.421 -0400,552509945.4741293,0,4.22,102.4439
2018-07-05 14:59:05.819 -0400,149,1530817138.859889,40.738712042998,-73.97722370241516,11.48885,-1,-1,10,65,-9999,2799.43105775,0.849517822265625,0.064453125,-0.5068511962890625,2799.39623775,0.6322257061672338,1.034573940997486,-0.06774520509495664,0.04403874650597572,-0.05029593035578728,0.06262121349573135,-0.01347959041595459,-0.009084388613700867,0.000823974609375,XArbitraryZVertical,-0.1816236972808838,0.4606005847454071,0.254128098487854,0.8308290839195251,0.8576720952987671,0.06769339740276337,-0.5097198486328125,2799.28417675,unknown,2,2018-07-05 14:59:05.668 -0400,2018-07-05 13:09:05.896 -0400,67,4.391837,0,0,47.38,0,0,2018-07-05 14:58:50.421 -0400,552509945.4741293,0,4.22,102.4439
2018-07-05 14:59:05.854 -0400,150,1530817138.859889,40.738712042998,-73.97722370241516,11.48885,-1,-1,10,65,-9999,2799.46584775,0.863250732421875,0.031341552734375,-0.513641357421875,2799.45592975,0.6289199161467145,1.032490100061582,-0.06479146033551361,0.07693079113960266,-0.03301334381103516,-0.02074231766164303,0.02002435922622681,-0.01245425641536713,0.001138865947723389,XArbitraryZVertical,-0.17938531935215,0.4604538083076477,0.2536488175392151,0.8315431475639343,0.8567761778831482,0.06474614143371582,-0.5116063952445984,2799.28417675,unknown,2,2018-07-05 14:59:05.668 -0400,2018-07-05 13:09:05.896 -0400,67,4.391837,0,0,47.38,0,0,2018-07-05 14:58:50.421 -0400,552509945.4741293,0,4.22,102.4439
2018-07-05 14:59:05.889 -0400,151,1530817138.859889,40.738712042998,-73.97722370241516,11.48885,-1,-1,10,65,-9999,2799.50066875,0.8496551513671875,0.0474090576171875,-0.51617431640625,2799.45592975,0.6289199161467145,1.032490100061582,-0.06479146033551361,0.07693079113960266,-0.03301334381103516,-0.02074231766164303,0.02002435922622681,-0.01245425641536713,0.001138865947723389,XArbitraryZVertical,-0.17938531935215,0.4604538083076477,0.2536488175392151,0.8315431475639343,0.8567761778831482,0.06474614143371582,-0.5116063952445984,2799.28417675,unknown,2,2018-07-05 14:59:05.668 -0400,2018-07-05 13:09:05.896 -0400,67,4.391837,0,0,47.38,0,0,2018-07-05 14:58:50.421 -0400,552509945.4741293,0,4.22,102.4439
2018-07-05 14:59:05.924 -0400,152,1530817138.859889,40.738712042998,-73.97722370241516,11.48885,-1,-1,10,65,-9999,2799.53548875,0.847503662109375,0.0663909912109375,-0.5024871826171875,2799.51559175,0.628691052493639,1.030351866782693,-0.06292449561603432,0.01205894816666842,-0.04903785139322281,0.03343416750431061,-0.007103919982910156,-0.01059110462665558,-0.002187490463256836,XArbitraryZVertical,-0.178293839097023,0.459850013256073,0.2541904151439667,0.8319466114044189,0.8557825088500977,0.06288298219442368,-0.5134985446929932,2799.28417675,unknown,2,2018-07-05 14:59:05.668 -0400,2018-07-05 13:09:05.896 -0400,67,4.391837,0,0,47.38,0,0,2018-07-05 14:58:50.421 -0400,552509945.4741293,0,4.22,102.4439
2018-07-05 14:59:05.958 -0400,153,1530817138.859889,40.738712042998,-73.97722370241516,11.48885,-1,-1,10,65,-9999,2799.57027875,0.861114501953125,0.02691650390625,-0.4990692138671875,2799.51559175,0.628691052493639,1.030351866782693,-0.06292449561603432,0.01205894816666842,-0.04903785139322281,0.03343416750431061,-0.007103919982910156,-0.01059110462665558,-0.002187490463256836,XArbitraryZVertical,-0.178293839097023,0.459850013256073,0.2541904151439667,0.8319466114044189,0.8557825088500977,0.06288298219442368,-0.5134985446929932,2799.28417675,unknown,2,2018-07-05 14:59:05.668 -0400,2018-07-05 13:09:05.896 -0400,67,4.391837,0,0,47.38,0,0,2018-07-05 14:58:50.421 -0400,552509945.4741293,0,4.22,102.4439
2018-07-05 14:59:06.004 -0400,154,1530817138.859889,40.738712042998,-73.97722370241516,11.48885,-1,-1,10,65,-9999,2799.60509975,0.8625335693359375,0.040069580078125,-0.4965667724609375,2799.57525375,0.6268763826571592,1.028660805846816,-0.0594613827014615,0.04520706087350845,-0.01608229987323284,0.06145241856575012,0.008446216583251953,-0.02617745101451874,0.01651918888092041,XArbitraryZVertical,-0.1762367486953735,0.4597971737384796,0.2544099390506744,0.8323470950126648,0.8550944328308105,0.05942634865641594,-0.5150543451309204,2799.28417675,unknown,2,2018-07-05 14:59:05.668 -0400,2018-07-05 13:09:05.896 -0400,67,4.391837,0,0,47.38,0,0,2018-07-05 14:58:50.421 -0400,552509945.4741293,0,4.22,102.4439
2018-07-05 14:59:06.028 -0400,155,1530817138.859889,40.738712042998,-73.97722370241516,11.48885,-1,-1,10,65,-9999,2799.63988975,0.865081787109375,0.0571441650390625,-0.5071868896484375,2799.63491575,0.6309148303813256,1.028391718484554,-0.05564732432240165,-0.03224767744541168,-0.007372165098786354,0.08438649773597717,0.008442580699920654,-0.001404136419296265,0.01062178611755371,XArbitraryZVertical,-0.1755608469247818,0.4598690271377563,0.2570200562477112,0.8316482305526733,0.8551438450813293,0.05561861023306847,-0.5153977274894714,2799.28417675,unknown,2,2018-07-05 14:59:05.668 -0400,2018-07-05 13:09:05.896 -0400,67,4.391837,0,0,47.38,0,0,2018-07-05 14:58:50.421 -0400,552509945.4741293,0,4.22,102.4439
2018-07-05 14:59:06.063 -0400,156,1530817138.859889,40.738712042998,-73.97722370241516,11.48885,-1,-1,10,65,-9999,2799.67470975,0.8660736083984375,0.03131103515625,-0.5058135986328125,2799.63491575,0.6309148303813256,1.028391718484554,-0.05564732432240165,-0.03224767744541168,-0.007372165098786354,0.08438649773597717,0.008442580699920654,-0.001404136419296265,0.01062178611755371,XArbitraryZVertical,-0.1755608469247818,0.4598690271377563,0.2570200562477112,0.8316482305526733,0.8551438450813293,0.05561861023306847,-0.5153977274894714,2799.28417675,unknown,2,2018-07-05 14:59:05.668 -0400,2018-07-05 13:09:05.896 -0400,67,4.391837,0,0,47.38,0,0,2018-07-05 14:58:50.421 -0400,552509945.4741293,0,4.22,102.4439
2018-07-05 14:59:06.098 -0400,157,1530817138.859889,40.738712042998,-73.97722370241516,11.48885,-1,-1,10,65,-9999,2799.70953075,0.85614013671875,0.0366363525390625,-0.491302490234375,2799.69460775,0.6341268177418433,1.028660258247242,-0.05148298234971212,-0.04319153726100922,0.005393165163695812,0.1153365597128868,0.00762486457824707,-0.02745817601680756,0.01378780603408813,XArbitraryZVertical,-0.1746205538511276,0.4602891206741333,0.2593197226524353,0.830899715423584,0.8554732799530029,0.05146024376153946,-0.5152831673622131,2799.28417675,unknown,2,2018-07-05 14:59:05.668 -0400,2018-07-05 13:09:05.896 -0400,67,4.391837,0,0,47.38,0,0,2018-07-05 14:58:50.421 -0400,552509945.4741293,0,4.22,102.4439
2018-07-05 14:59:06.132 -0400,158,1530817138.859889,40.738712042998,-73.97722370241516,11.48885,-1,-1,10,65,-9999,2799.74432075,0.8566131591796875,0.0702667236328125,-0.49310302734375,2799.69460775,0.6341268177418433,1.028660258247242,-0.05148298234971212,-0.04319153726100922,0.005393165163695812,0.1153365597128868,0.00762486457824707,-0.02745817601680756,0.01378780603408813,XArbitraryZVertical,-0.1746205538511276,0.4602891206741333,0.2593197226524353,0.830899715423584,0.8554732799530029,0.05146024376153946,-0.5152831673622131,2799.28417675,unknown,2,2018-07-05 14:59:05.668 -0400,2018-07-05 13:09:05.896 -0400,67,4.391837,0,0,47.38,0,0,2018-07-05 14:58:50.421 -0400,552509945.4741293,0,4.22,102.4439
2018-07-05 14:59:06.167 -0400,159,1530817138.859889,40.738712042998,-73.97722370241516,11.48885,-1,-1,10,65,-9999,2799.77914175,0.8737945556640625,0.0561676025390625,-0.5041656494140625,2799.75426975,0.6406609612590702,1.029609449088954,-0.04921685875761349,-0.05327281355857849,0.01958488300442696,0.03485523164272308,0.0005534887313842773,0.02106975018978119,0.02142655849456787,XArbitraryZVertical,-0.1753164976835251,0.4604338407516479,0.2624864876270294,0.8296775221824646,0.8560596108436584,0.0491969920694828,-0.5145295858383179,2799.28417675,unknown,2,2018-07-05 14:59:05.668 -0400,2018-07-05 13:09:05.896 -0400,67,4.391837,0,0,47.38,0,0,2018-07-05 14:58:50.421 -0400,552509945.4741293,0,4.22,102.4439
2018-07-05 14:59:06.202 -0400,160,1530817138.859889,40.738712042998,-73.97722370241516,11.48885,-1,-1,10,65,-9999,2799.81393175,0.8684844970703125,0.0761566162109375,-0.5090179443359375,2799.75426975,0.6406609612590702,1.029609449088954,-0.04921685875761349,-0.05327281355857849,0.01958488300442696,0.03485523164272308,0.0005534887313842773,0.02106975018978119,0.02142655849456787,XArbitraryZVertical,-0.1753164976835251,0.4604338407516479,0.2624864876270294,0.8296775221824646,0.8560596108436584,0.0491969920694828,-0.5145295858383179,2799.28417675,unknown,2,2018-07-05 14:59:05.668 -0400,2018-07-05 13:09:05.896 -0400,67,4.391837,0,0,47.38,0,0,2018-07-05 14:58:50.421 -0400,552509945.4741293,0,4.22,102.4439
2018-07-05 14:59:06.237 -0400,161,1530817138.859889,40.738712042998,-73.97722370241516,11.48885,-1,-1,10,65,-9999,2799.84875175,0.866241455078125,0.0610809326171875,-0.5217742919921875,2799.81393175,0.6440540270185444,1.031425730799724,-0.04930501613136856,-0.04233851283788681,0.02391278743743896,0.01028970070183277,0.008504629135131836,0.01808252930641174,0.01020991802215576,XArbitraryZVertical,-0.1763731092214584,0.4608759582042694,0.2637127339839935,0.8288189768791199,0.8569891452789307,0.04928504303097725,-0.5129717588424683,2799.28417675,unknown,2,2018-07-05 14:59:05.668 -0400,2018-07-05 13:09:05.896 -0400,67,4.391837,0,0,47.38,0,0,2018-07-05 14:58:50.421 -0400,552509945.4741293,0,4.22,102.4439
2018-07-05 14:59:06.272 -0400,162,1530817138.859889,40.738712042998,-73.97722370241516,11.48885,-1,-1,10,65,-9999,2799.88357275,0.8631134033203125,0.0205841064453125,-0.5019989013671875,2799.87362375,0.641354879329318,1.032734749187909,-0.05058924080925079,0.05583333969116211,0.004594482481479645,-0.05744919925928116,0.01004034280776978,-0.01435856521129608,-0.003701508045196533,XArbitraryZVertical,-0.1764500290155411,0.4614726901054382,0.2621736824512482,0.8289589285850525,0.8576049208641052,0.05056766420602798,-0.511816680431366,2799.28417675,unknown,2,2018-07-05 14:59:05.668 -0400,2018-07-05 13:09:05.896 -0400,67,4.391837,0,0,47.38,0,0,2018-07-05 14:58:50.421 -0400,552509945.4741293,0,4.22,102.4439
2018-07-05 14:59:06.307 -0400,163,1530817138.859889,40.738712042998,-73.97722370241516,11.48885,-1,-1,10,65,-9999,2799.91836275,0.866851806640625,0.032745361328125,-0.492156982421875,2799.87362375,0.641354879329318,1.032734749187909,-0.05058924080925079,0.05583333969116211,0.004594482481479645,-0.05744919925928116,0.01004034280776978,-0.01435856521129608,-0.003701508045196533,XArbitraryZVertical,-0.1764500290155411,0.4614726901054382,0.2621736824512482,0.8289589285850525,0.8576049208641052,0.05056766420602798,-0.511816680431366,2799.28417675,unknown,2,2018-07-05 14:59:05.668 -0400,2018-07-05 13:09:05.896 -0400,67,4.391837,0,0,47.38,0,0,2018-07-05 14:58:50.421 -0400,552509945.4741293,0,4.22,102.4439
2018-07-05 14:59:06.341 -0400,164,1530817138.859889,40.738712042998,-73.97722370241516,11.48885,-1,-1,10,65,-9999,2799.95318275,0.8886566162109375,0.0478515625,-0.487945556640625,2799.93328575,0.6408727808246415,1.031614847548723,-0.05302380299512804,-0.04126275703310966,-0.01881896331906319,-0.003506006672978401,0.01088994741439819,-0.01927702128887177,0.02105867862701416,XArbitraryZVertical,-0.1771917641162872,0.4607027173042297,0.2614942491054535,0.8294436931610107,0.8569231629371643,0.05299896001815796,-0.5127121806144714,2799.28417675,unknown,2,2018-07-05 14:59:05.668 -0400,2018-07-05 13:09:05.896 -0400,67,4.391837,0,0,47.38,0,0,2018-07-05 14:58:50.421 -0400,552509945.4741293,0,4.22,102.4439
2018-07-05 14:59:06.376 -0400,165,1530817138.859889,40.738712042998,-73.97722370241516,11.48885,-1,-1,10,65,-9999,2799.98797275,0.866546630859375,0.1155548095703125,-0.4777069091796875,2799.93328575,0.6408727808246415,1.031614847548723,-0.05302380299512804,-0.04126275703310966,-0.01881896331906319,-0.003506006672978401,0.01088994741439819,-0.01927702128887177,0.02105867862701416,XArbitraryZVertical,-0.1771917641162872,0.4607027173042297,0.2614942491054535,0.8294436931610107,0.8569231629371643,0.05299896001815796,-0.5127121806144714,2799.28417675,unknown,2,2018-07-05 14:59:05.668 -0400,2018-07-05 13:09:05.896 -0400,67,4.391837,0,0,47.38,0,0,2018-07-05 14:58:50.421 -0400,552509945.4741293,0,4.22,102.4439
2018-07-05 14:59:06.412 -0400,166,1530817138.859889,40.738712042998,-73.97722370241516,11.48885,-1,-1,10,65,-9999,2800.02279375,0.846832275390625,0.1048583984375,-0.4916229248046875,2799.99294775,0.6485954566804177,1.028954717631759,-0.0508742932310178,-0.07467525452375412,-0.06835615634918213,0.1367453783750534,0.01431286334991455,0.05544036626815796,0.03734040260314941,XArbitraryZVertical,-0.1777350455522537,0.4592238962650299,0.2654417455196381,0.8288931846618652,0.8556517362594604,0.05085235089063644,-0.5150473117828369,2799.28417675,unknown,2,2018-07-05 14:59:05.668 -0400,2018-07-05 13:09:05.896 -0400,67,4.391837,0,0,47.38,0,0,2018-07-05 14:58:50.421 -0400,552509945.4741293,0,4.22,102.4439
2018-07-05 14:59:06.446 -0400,167,1530817138.859889,40.738712042998,-73.97722370241516,11.48885,-1,-1,10,65,-9999,2800.05761375,0.8426666259765625,0.005462646484375,-0.4979095458984375,2800.05263975,0.644983165912888,1.02944064126,-0.04533704109231347,0.1630658805370331,0.05549468100070953,-0.02460969239473343,-0.008626222610473633,0.0005922019481658936,0.01463127136230469,XArbitraryZVertical,-0.1746949255466461,0.4605403244495392,0.2652119398117065,0.8288823962211609,0.8561298847198486,0.0453215129673481,-0.5147686004638672,2799.28417675,unknown,2,2018-07-05 14:59:05.668 -0400,2018-07-05 13:09:05.896 -0400,67,4.391837,0,0,47.38,0,0,2018-07-05 14:58:50.421 -0400,552509945.4741293,0,4.22,102.4439
2018-07-05 14:59:06.500 -0400,168,1530817138.859889,40.738712042998,-73.97722370241516,11.48885,-1,-1,10,65,-9999,2800.09240475,0.8385162353515625,-0.0251922607421875,-0.51171875,2800.05263975,0.644983165912888,1.02944064126,-0.04533704109231347,0.1630658805370331,0.05549468100070953,-0.02460969239473343,-0.008626222610473633,0.0005922019481658936,0.01463127136230469,XArbitraryZVertical,-0.1746949255466461,0.4605403244495392,0.2652119398117065,0.8288823962211609,0.8561298847198486,0.0453215129673481,-0.5147686004638672,2799.28417675,unknown,2,2018-07-05 14:59:05.668 -0400,2018-07-05 13:09:05.896 -0400,67,4.391837,0,0,47.38,0,0,2018-07-05 14:58:50.421 -0400,552509945.4741293,0,4.22,102.4439
